{
    "participant": {
        "id": "JF",
        "name": ""
    },
    "run": "1",
    "debug_mode": false,
    "testing": false,
    "monitor": {
        "name": "MyMonitor",
        "resolution": [
            1920,
            1080
        ],
        "width_cm": 42.0,
        "distance_cm": 57.0
    },
    "experiment_start": null,
    "experiment_end": "2026-01-12T11:40:08.643173",
    "total_duration_sec": null,
    "blocks": [
        {
            "block_number": 1,
            "block_type": "Alternation Block",
            "trials": [
                {
                    "trial_number": 1,
                    "global_trial_number": 1,
                    "trial_type": 4,
                    "condition": "target",
                    "reaction_time": 5000,
                    "button_press": 0,
                    "response_correct": false,
                    "is_target": "target",
                    "target_accuracy": "missed",
                    "trial_trigger_time": 56.4780238000003,
                    "s1_onset": 56.72057499999937,
                    "s2_onset": 61.751842800000304,
                    "trial_trigger_time_cor": 5.018254900000102,
                    "s1_onset_cor": 5.260806099999172,
                    "s2_onset_cor": 10.292073900000105,
                    "isi": 4.75,
                    "iti": 0.05,
                    "s1_filename": "stim\\mock2_c_04.jpg",
                    "s2_filename": "stim\\im_f_02.jpg",
                    "s1_category": "mock2",
                    "s2_category": "im",
                    "elapsed_since_previous": 0,
                    "timer": 0.0,
                    "tag": 5.018254900000102,
                    "block_start": 254.61763729999984,
                    "first_tag_trigger": 51.4597689000002
                },
                {
                    "trial_number": 2,
                    "global_trial_number": 2,
                    "trial_type": 4,
                    "condition": "neutral",
                    "reaction_time": 5000,
                    "button_press": 0,
                    "response_correct": false,
                    "is_target": "normal",
                    "target_accuracy": "correct",
                    "trial_trigger_time": 64.47499919999973,
                    "s1_onset": 64.73408840000047,
                    "s2_onset": 69.76547430000028,
                    "trial_trigger_time_cor": 13.01523029999953,
                    "s1_onset_cor": 13.274319500000274,
                    "s2_onset_cor": 18.30570540000008,
                    "isi": 4.75,
                    "iti": 0.05,
                    "s1_filename": "stim\\mock4_c_01.jpg",
                    "s2_filename": "stim\\mock3_f_01.jpg",
                    "s1_category": "mock4",
                    "s2_category": "mock3",
                    "elapsed_since_previous": 7.996975399999428,
                    "timer": 7.996975399999428,
                    "tag": 13.01523029999953,
                    "block_start": 254.61763729999984,
                    "first_tag_trigger": 51.4597689000002
                },
                {
                    "trial_number": 3,
                    "global_trial_number": 3,
                    "trial_type": 3,
                    "condition": "incoherent_mock",
                    "reaction_time": 5000,
                    "button_press": 0,
                    "response_correct": false,
                    "is_target": "normal",
                    "target_accuracy": "correct",
                    "trial_trigger_time": 73.46797890000016,
                    "s1_onset": 73.68052480000006,
                    "s2_onset": 78.96192929999961,
                    "trial_trigger_time_cor": 22.008209999999963,
                    "s1_onset_cor": 22.22075589999986,
                    "s2_onset_cor": 27.50216039999941,
                    "isi": 5,
                    "iti": 0.05,
                    "s1_filename": "stim\\am_c_05.jpg",
                    "s2_filename": "stim\\mock2_f_05.jpg",
                    "s1_category": "am",
                    "s2_category": "mock2",
                    "elapsed_since_previous": 8.992979700000433,
                    "timer": 16.98995509999986,
                    "tag": 22.008209999999963,
                    "block_start": 254.61763729999984,
                    "first_tag_trigger": 51.4597689000002
                },
                {
                    "trial_number": 4,
                    "global_trial_number": 4,
                    "trial_type": 3,
                    "condition": "incoherent_mock",
                    "reaction_time": 5000,
                    "button_press": 0,
                    "response_correct": false,
                    "is_target": "normal",
                    "target_accuracy": "correct",
                    "trial_trigger_time": 82.46799939999983,
                    "s1_onset": 82.71043959999952,
                    "s2_onset": 87.99161830000048,
                    "trial_trigger_time_cor": 31.008230499999627,
                    "s1_onset_cor": 31.25067069999932,
                    "s2_onset_cor": 36.53184940000028,
                    "isi": 5,
                    "iti": 0.05,
                    "s1_filename": "stim\\hp_c_05.jpg",
                    "s2_filename": "stim\\mock_f_03.jpg",
                    "s1_category": "hp",
                    "s2_category": "mock",
                    "elapsed_since_previous": 9.000020499999664,
                    "timer": 25.989975599999525,
                    "tag": 31.008230499999627,
                    "block_start": 254.61763729999984,
                    "first_tag_trigger": 51.4597689000002
                },
                {
                    "trial_number": 5,
                    "global_trial_number": 5,
                    "trial_type": 4,
                    "condition": "neutral",
                    "reaction_time": 5000,
                    "button_press": 0,
                    "response_correct": false,
                    "is_target": "normal",
                    "target_accuracy": "correct",
                    "trial_trigger_time": 92.47400050000033,
                    "s1_onset": 92.70660619999944,
                    "s2_onset": 97.48809379999875,
                    "trial_trigger_time_cor": 41.01423160000013,
                    "s1_onset_cor": 41.24683729999924,
                    "s2_onset_cor": 46.02832489999855,
                    "isi": 4.5,
                    "iti": 0.05,
                    "s1_filename": "stim\\mock2_c_03.jpg",
                    "s2_filename": "stim\\hp_f_03.jpg",
                    "s1_category": "mock2",
                    "s2_category": "hp",
                    "elapsed_since_previous": 10.006001100000503,
                    "timer": 35.99597670000003,
                    "tag": 41.01423160000013,
                    "block_start": 254.61763729999984,
                    "first_tag_trigger": 51.4597689000002
                },
                {
                    "trial_number": 6,
                    "global_trial_number": 6,
                    "trial_type": 1,
                    "condition": "coherent",
                    "reaction_time": 5000,
                    "button_press": 0,
                    "response_correct": false,
                    "is_target": "normal",
                    "target_accuracy": "correct",
                    "trial_trigger_time": 100.46799979999923,
                    "s1_onset": 100.72007659999872,
                    "s2_onset": 105.75147119999929,
                    "trial_trigger_time_cor": 49.008230899999035,
                    "s1_onset_cor": 49.26030769999852,
                    "s2_onset_cor": 54.29170229999909,
                    "isi": 4.75,
                    "iti": 0.05,
                    "s1_filename": "stim\\poc_c_05.jpg",
                    "s2_filename": "stim\\poc_f_03.jpg",
                    "s1_category": "poc",
                    "s2_category": "poc",
                    "elapsed_since_previous": 7.9939992999989045,
                    "timer": 43.98997599999893,
                    "tag": 49.008230899999035,
                    "block_start": 254.61763729999984,
                    "first_tag_trigger": 51.4597689000002
                },
                {
                    "trial_number": 7,
                    "global_trial_number": 7,
                    "trial_type": 1,
                    "condition": "coherent",
                    "reaction_time": 5000,
                    "button_press": 0,
                    "response_correct": false,
                    "is_target": "normal",
                    "target_accuracy": "correct",
                    "trial_trigger_time": 109.46701089999988,
                    "s1_onset": 109.78345239999908,
                    "s2_onset": 114.31491479999931,
                    "trial_trigger_time_cor": 58.00724199999968,
                    "s1_onset_cor": 58.32368349999888,
                    "s2_onset_cor": 62.855145899999115,
                    "isi": 4.25,
                    "iti": 0.05,
                    "s1_filename": "stim\\im_c_03.jpg",
                    "s2_filename": "stim\\im_f_03.jpg",
                    "s1_category": "im",
                    "s2_category": "im",
                    "elapsed_since_previous": 8.999011100000644,
                    "timer": 52.98898709999958,
                    "tag": 58.00724199999968,
                    "block_start": 254.61763729999984,
                    "first_tag_trigger": 51.4597689000002
                },
                {
                    "trial_number": 8,
                    "global_trial_number": 8,
                    "trial_type": 1,
                    "condition": "coherent",
                    "reaction_time": 5000,
                    "button_press": 0,
                    "response_correct": false,
                    "is_target": "normal",
                    "target_accuracy": "correct",
                    "trial_trigger_time": 116.46800499999881,
                    "s1_onset": 116.69736999999986,
                    "s2_onset": 121.72864209999898,
                    "trial_trigger_time_cor": 65.00823609999861,
                    "s1_onset_cor": 65.23760109999967,
                    "s2_onset_cor": 70.26887319999878,
                    "isi": 4.75,
                    "iti": 0.05,
                    "s1_filename": "stim\\hp_c_02.jpg",
                    "s2_filename": "stim\\hp_f_04.jpg",
                    "s1_category": "hp",
                    "s2_category": "hp",
                    "elapsed_since_previous": 7.000994099998934,
                    "timer": 59.98998119999851,
                    "tag": 65.00823609999861,
                    "block_start": 254.61763729999984,
                    "first_tag_trigger": 51.4597689000002
                },
                {
                    "trial_number": 9,
                    "global_trial_number": 9,
                    "trial_type": 1,
                    "condition": "coherent",
                    "reaction_time": 5000,
                    "button_press": 0,
                    "response_correct": false,
                    "is_target": "normal",
                    "target_accuracy": "correct",
                    "trial_trigger_time": 125.46499149999909,
                    "s1_onset": 125.72705270000006,
                    "s2_onset": 130.75851599999987,
                    "trial_trigger_time_cor": 74.00522259999889,
                    "s1_onset_cor": 74.26728379999986,
                    "s2_onset_cor": 79.29874709999967,
                    "isi": 4.75,
                    "iti": 0.05,
                    "s1_filename": "stim\\im_c_01.jpg",
                    "s2_filename": "stim\\im_f_04.jpg",
                    "s1_category": "im",
                    "s2_category": "im",
                    "elapsed_since_previous": 8.996986500000276,
                    "timer": 68.98696769999879,
                    "tag": 74.00522259999889,
                    "block_start": 254.61763729999984,
                    "first_tag_trigger": 51.4597689000002
                },
                {
                    "trial_number": 10,
                    "global_trial_number": 10,
                    "trial_type": 3,
                    "condition": "target",
                    "reaction_time": 5000,
                    "button_press": 0,
                    "response_correct": false,
                    "is_target": "target",
                    "target_accuracy": "missed",
                    "trial_trigger_time": 133.46500070000002,
                    "s1_onset": 133.7574198000002,
                    "s2_onset": 138.28889809999964,
                    "trial_trigger_time_cor": 82.00523179999982,
                    "s1_onset_cor": 82.29765090000001,
                    "s2_onset_cor": 86.82912919999944,
                    "isi": 4.25,
                    "iti": 0.05,
                    "s1_filename": "stim\\am_c_02.jpg",
                    "s2_filename": "stim\\mock2_f_02.jpg",
                    "s1_category": "am",
                    "s2_category": "mock2",
                    "elapsed_since_previous": 8.000009200000932,
                    "timer": 76.98697689999972,
                    "tag": 82.00523179999982,
                    "block_start": 254.61763729999984,
                    "first_tag_trigger": 51.4597689000002
                },
                {
                    "trial_number": 11,
                    "global_trial_number": 11,
                    "trial_type": 4,
                    "condition": "neutral",
                    "reaction_time": 5000,
                    "button_press": 0,
                    "response_correct": false,
                    "is_target": "normal",
                    "target_accuracy": "correct",
                    "trial_trigger_time": 142.46895589999986,
                    "s1_onset": 142.6872829999993,
                    "s2_onset": 147.46861349999926,
                    "trial_trigger_time_cor": 91.00918699999966,
                    "s1_onset_cor": 91.2275140999991,
                    "s2_onset_cor": 96.00884459999907,
                    "isi": 4.5,
                    "iti": 0.05,
                    "s1_filename": "stim\\mock3_c_04.jpg",
                    "s2_filename": "stim\\mock3_f_05.jpg",
                    "s1_category": "mock3",
                    "s2_category": "mock3",
                    "elapsed_since_previous": 9.003955199999837,
                    "timer": 85.99093209999955,
                    "tag": 91.00918699999966,
                    "block_start": 254.61763729999984,
                    "first_tag_trigger": 51.4597689000002
                },
                {
                    "trial_number": 12,
                    "global_trial_number": 12,
                    "trial_type": 1,
                    "condition": "coherent",
                    "reaction_time": 5000,
                    "button_press": 0,
                    "response_correct": false,
                    "is_target": "normal",
                    "target_accuracy": "correct",
                    "trial_trigger_time": 150.46699549999903,
                    "s1_onset": 150.7008697000001,
                    "s2_onset": 154.98257229999945,
                    "trial_trigger_time_cor": 99.00722659999883,
                    "s1_onset_cor": 99.24110079999991,
                    "s2_onset_cor": 103.52280339999925,
                    "isi": 4,
                    "iti": 0.05,
                    "s1_filename": "stim\\im_c_04.jpg",
                    "s2_filename": "stim\\im_f_01.jpg",
                    "s1_category": "im",
                    "s2_category": "im",
                    "elapsed_since_previous": 7.998039599999174,
                    "timer": 93.98897169999873,
                    "tag": 99.00722659999883,
                    "block_start": 254.61763729999984,
                    "first_tag_trigger": 51.4597689000002
                },
                {
                    "trial_number": 13,
                    "global_trial_number": 13,
                    "trial_type": 1,
                    "condition": "coherent",
                    "reaction_time": 5000,
                    "button_press": 0,
                    "response_correct": false,
                    "is_target": "normal",
                    "target_accuracy": "correct",
                    "trial_trigger_time": 158.47698169999967,
                    "s1_onset": 158.68112219999966,
                    "s2_onset": 163.96249050000006,
                    "trial_trigger_time_cor": 107.01721279999947,
                    "s1_onset_cor": 107.22135329999946,
                    "s2_onset_cor": 112.50272159999986,
                    "isi": 5,
                    "iti": 0.05,
                    "s1_filename": "stim\\hp_c_01.jpg",
                    "s2_filename": "stim\\hp_f_02.jpg",
                    "s1_category": "hp",
                    "s2_category": "hp",
                    "elapsed_since_previous": 8.00998620000064,
                    "timer": 101.99895789999937,
                    "tag": 107.01721279999947,
                    "block_start": 254.61763729999984,
                    "first_tag_trigger": 51.4597689000002
                },
                {
                    "trial_number": 14,
                    "global_trial_number": 14,
                    "trial_type": 1,
                    "condition": "coherent",
                    "reaction_time": 5000,
                    "button_press": 0,
                    "response_correct": false,
                    "is_target": "normal",
                    "target_accuracy": "correct",
                    "trial_trigger_time": 168.47000689999913,
                    "s1_onset": 168.77711950000048,
                    "s2_onset": 173.80871359999946,
                    "trial_trigger_time_cor": 117.01023799999894,
                    "s1_onset_cor": 117.31735060000028,
                    "s2_onset_cor": 122.34894469999927,
                    "isi": 4.75,
                    "iti": 0.05,
                    "s1_filename": "stim\\am_c_04.jpg",
                    "s2_filename": "stim\\am_f_02.jpg",
                    "s1_category": "am",
                    "s2_category": "am",
                    "elapsed_since_previous": 9.993025199999465,
                    "timer": 111.99198309999883,
                    "tag": 117.01023799999894,
                    "block_start": 254.61763729999984,
                    "first_tag_trigger": 51.4597689000002
                },
                {
                    "trial_number": 15,
                    "global_trial_number": 15,
                    "trial_type": 1,
                    "condition": "coherent",
                    "reaction_time": 5000,
                    "button_press": 0,
                    "response_correct": false,
                    "is_target": "normal",
                    "target_accuracy": "correct",
                    "trial_trigger_time": 176.47500670000045,
                    "s1_onset": 176.7241914999995,
                    "s2_onset": 181.7556786999994,
                    "trial_trigger_time_cor": 125.01523780000025,
                    "s1_onset_cor": 125.2644225999993,
                    "s2_onset_cor": 130.2959097999992,
                    "isi": 4.75,
                    "iti": 0.05,
                    "s1_filename": "stim\\poc_c_03.jpg",
                    "s2_filename": "stim\\poc_f_04.jpg",
                    "s1_category": "poc",
                    "s2_category": "poc",
                    "elapsed_since_previous": 8.004999800001315,
                    "timer": 119.99698290000015,
                    "tag": 125.01523780000025,
                    "block_start": 254.61763729999984,
                    "first_tag_trigger": 51.4597689000002
                },
                {
                    "trial_number": 16,
                    "global_trial_number": 16,
                    "trial_type": 2,
                    "condition": "incoherent_real",
                    "reaction_time": 5000,
                    "button_press": 0,
                    "response_correct": false,
                    "is_target": "normal",
                    "target_accuracy": "correct",
                    "trial_trigger_time": 186.464937499999,
                    "s1_onset": 186.67046130000017,
                    "s2_onset": 190.95197779999944,
                    "trial_trigger_time_cor": 135.0051685999988,
                    "s1_onset_cor": 135.21069239999997,
                    "s2_onset_cor": 139.49220889999924,
                    "isi": 4,
                    "iti": 0.05,
                    "s1_filename": "stim\\am_c_01.jpg",
                    "s2_filename": "stim\\poc_f_02.jpg",
                    "s1_category": "am",
                    "s2_category": "poc",
                    "elapsed_since_previous": 9.989930799998547,
                    "timer": 129.9869136999987,
                    "tag": 135.0051685999988,
                    "block_start": 254.61763729999984,
                    "first_tag_trigger": 51.4597689000002
                },
                {
                    "trial_number": 17,
                    "global_trial_number": 17,
                    "trial_type": 1,
                    "condition": "coherent",
                    "reaction_time": 5000,
                    "button_press": 0,
                    "response_correct": false,
                    "is_target": "normal",
                    "target_accuracy": "correct",
                    "trial_trigger_time": 194.4629447999996,
                    "s1_onset": 194.6672791000001,
                    "s2_onset": 199.93199099999947,
                    "trial_trigger_time_cor": 143.0031758999994,
                    "s1_onset_cor": 143.2075101999999,
                    "s2_onset_cor": 148.47222209999927,
                    "isi": 5,
                    "iti": 0.05,
                    "s1_filename": "stim\\poc_c_04.jpg",
                    "s2_filename": "stim\\poc_f_05.jpg",
                    "s1_category": "poc",
                    "s2_category": "poc",
                    "elapsed_since_previous": 7.998007300000609,
                    "timer": 137.9849209999993,
                    "tag": 143.0031758999994,
                    "block_start": 254.61763729999984,
                    "first_tag_trigger": 51.4597689000002
                },
                {
                    "trial_number": 18,
                    "global_trial_number": 18,
                    "trial_type": 4,
                    "condition": "neutral",
                    "reaction_time": 5000,
                    "button_press": 0,
                    "response_correct": false,
                    "is_target": "normal",
                    "target_accuracy": "correct",
                    "trial_trigger_time": 203.46895109999969,
                    "s1_onset": 203.74724819999938,
                    "s2_onset": 208.52885199999946,
                    "trial_trigger_time_cor": 152.0091821999995,
                    "s1_onset_cor": 152.28747929999918,
                    "s2_onset_cor": 157.06908309999926,
                    "isi": 4.5,
                    "iti": 0.05,
                    "s1_filename": "stim\\mock2_c_01.jpg",
                    "s2_filename": "stim\\mock2_f_04.jpg",
                    "s1_category": "mock2",
                    "s2_category": "mock2",
                    "elapsed_since_previous": 9.006006300000081,
                    "timer": 146.99092729999938,
                    "tag": 152.0091821999995,
                    "block_start": 254.61763729999984,
                    "first_tag_trigger": 51.4597689000002
                },
                {
                    "trial_number": 19,
                    "global_trial_number": 19,
                    "trial_type": 2,
                    "condition": "incoherent_real",
                    "reaction_time": 5000,
                    "button_press": 0,
                    "response_correct": false,
                    "is_target": "normal",
                    "target_accuracy": "correct",
                    "trial_trigger_time": 211.4709617999997,
                    "s1_onset": 211.6941422,
                    "s2_onset": 216.47581059999902,
                    "trial_trigger_time_cor": 160.01119289999951,
                    "s1_onset_cor": 160.2343732999998,
                    "s2_onset_cor": 165.01604169999882,
                    "isi": 4.5,
                    "iti": 0.05,
                    "s1_filename": "stim\\im_c_02.jpg",
                    "s2_filename": "stim\\am_f_05.jpg",
                    "s1_category": "im",
                    "s2_category": "am",
                    "elapsed_since_previous": 8.002010700000028,
                    "timer": 154.9929379999994,
                    "tag": 160.01119289999951,
                    "block_start": 254.61763729999984,
                    "first_tag_trigger": 51.4597689000002
                },
                {
                    "trial_number": 20,
                    "global_trial_number": 20,
                    "trial_type": 1,
                    "condition": "coherent",
                    "reaction_time": 5000,
                    "button_press": 0,
                    "response_correct": false,
                    "is_target": "normal",
                    "target_accuracy": "correct",
                    "trial_trigger_time": 220.46500059999926,
                    "s1_onset": 220.67409539999971,
                    "s2_onset": 225.70555429999877,
                    "trial_trigger_time_cor": 169.00523169999906,
                    "s1_onset_cor": 169.21432649999952,
                    "s2_onset_cor": 174.24578539999857,
                    "isi": 4.75,
                    "iti": 0.05,
                    "s1_filename": "stim\\hp_c_04.jpg",
                    "s2_filename": "stim\\hp_f_01.jpg",
                    "s1_category": "hp",
                    "s2_category": "hp",
                    "elapsed_since_previous": 8.994038799999544,
                    "timer": 163.98697679999896,
                    "tag": 169.00523169999906,
                    "block_start": 254.61763729999984,
                    "first_tag_trigger": 51.4597689000002
                },
                {
                    "trial_number": 21,
                    "global_trial_number": 21,
                    "trial_type": 2,
                    "condition": "incoherent_real",
                    "reaction_time": 5000,
                    "button_press": 0,
                    "response_correct": false,
                    "is_target": "normal",
                    "target_accuracy": "correct",
                    "trial_trigger_time": 229.46801930000038,
                    "s1_onset": 229.72075120000045,
                    "s2_onset": 234.75216550000005,
                    "trial_trigger_time_cor": 178.00825040000018,
                    "s1_onset_cor": 178.26098230000025,
                    "s2_onset_cor": 183.29239659999985,
                    "isi": 4.75,
                    "iti": 0.05,
                    "s1_filename": "stim\\am_c_03.jpg",
                    "s2_filename": "stim\\poc_f_01.jpg",
                    "s1_category": "am",
                    "s2_category": "poc",
                    "elapsed_since_previous": 9.003018700001121,
                    "timer": 172.98999550000008,
                    "tag": 178.00825040000018,
                    "block_start": 254.61763729999984,
                    "first_tag_trigger": 51.4597689000002
                },
                {
                    "trial_number": 22,
                    "global_trial_number": 22,
                    "trial_type": 3,
                    "condition": "incoherent_mock",
                    "reaction_time": 5000,
                    "button_press": 0,
                    "response_correct": false,
                    "is_target": "normal",
                    "target_accuracy": "correct",
                    "trial_trigger_time": 237.47001869999986,
                    "s1_onset": 237.71755669999948,
                    "s2_onset": 242.99895449999894,
                    "trial_trigger_time_cor": 186.01024979999966,
                    "s1_onset_cor": 186.25778779999928,
                    "s2_onset_cor": 191.53918559999875,
                    "isi": 5,
                    "iti": 0.05,
                    "s1_filename": "stim\\poc_c_02.jpg",
                    "s2_filename": "stim\\mock4_f_04.jpg",
                    "s1_category": "poc",
                    "s2_category": "mock4",
                    "elapsed_since_previous": 8.001999399999477,
                    "timer": 180.99199489999955,
                    "tag": 186.01024979999966,
                    "block_start": 254.61763729999984,
                    "first_tag_trigger": 51.4597689000002
                },
                {
                    "trial_number": 23,
                    "global_trial_number": 23,
                    "trial_type": 1,
                    "condition": "coherent",
                    "reaction_time": 5000,
                    "button_press": 0,
                    "response_correct": false,
                    "is_target": "normal",
                    "target_accuracy": "correct",
                    "trial_trigger_time": 245.47099919999891,
                    "s1_onset": 245.73151609999877,
                    "s2_onset": 251.0126325000001,
                    "trial_trigger_time_cor": 194.01123029999872,
                    "s1_onset_cor": 194.27174719999857,
                    "s2_onset_cor": 199.5528635999999,
                    "isi": 5,
                    "iti": 0.05,
                    "s1_filename": "stim\\hp_c_03.jpg",
                    "s2_filename": "stim\\hp_f_05.jpg",
                    "s1_category": "hp",
                    "s2_category": "hp",
                    "elapsed_since_previous": 8.00098049999906,
                    "timer": 188.9929753999986,
                    "tag": 194.01123029999872,
                    "block_start": 254.61763729999984,
                    "first_tag_trigger": 51.4597689000002
                },
                {
                    "trial_number": 24,
                    "global_trial_number": 24,
                    "trial_type": 3,
                    "condition": "target",
                    "reaction_time": 5000,
                    "button_press": 0,
                    "response_correct": false,
                    "is_target": "target",
                    "target_accuracy": "missed",
                    "trial_trigger_time": 255.4640032999996,
                    "s1_onset": 255.7607909999988,
                    "s2_onset": 260.0425379999997,
                    "trial_trigger_time_cor": 204.0042343999994,
                    "s1_onset_cor": 204.3010220999986,
                    "s2_onset_cor": 208.5827690999995,
                    "isi": 4,
                    "iti": 0.05,
                    "s1_filename": "stim\\poc_c_01.jpg",
                    "s2_filename": "stim\\mock1_f_02.jpg",
                    "s1_category": "poc",
                    "s2_category": "mock1",
                    "elapsed_since_previous": 9.99300410000069,
                    "timer": 198.9859794999993,
                    "tag": 204.0042343999994,
                    "block_start": 254.61763729999984,
                    "first_tag_trigger": 51.4597689000002
                },
                {
                    "trial_number": 25,
                    "global_trial_number": 25,
                    "trial_type": 1,
                    "condition": "coherent",
                    "reaction_time": 5000,
                    "button_press": 0,
                    "response_correct": false,
                    "is_target": "normal",
                    "target_accuracy": "correct",
                    "trial_trigger_time": 262.47305199999937,
                    "s1_onset": 262.7081326999996,
                    "s2_onset": 267.48959099999956,
                    "trial_trigger_time_cor": 211.01328309999917,
                    "s1_onset_cor": 211.24836379999942,
                    "s2_onset_cor": 216.02982209999936,
                    "isi": 4.5,
                    "iti": 0.05,
                    "s1_filename": "stim\\im_c_05.jpg",
                    "s2_filename": "stim\\im_f_05.jpg",
                    "s1_category": "im",
                    "s2_category": "im",
                    "elapsed_since_previous": 7.0090486999997665,
                    "timer": 205.99502819999907,
                    "tag": 211.01328309999917,
                    "block_start": 254.61763729999984,
                    "first_tag_trigger": 51.4597689000002
                },
                {
                    "trial_number": 26,
                    "global_trial_number": 26,
                    "trial_type": 3,
                    "condition": "incoherent_mock",
                    "reaction_time": 5000,
                    "button_press": 0,
                    "response_correct": false,
                    "is_target": "normal",
                    "target_accuracy": "correct",
                    "trial_trigger_time": 270.4680202999989,
                    "s1_onset": 270.6717835999989,
                    "s2_onset": 275.7031146999998,
                    "trial_trigger_time_cor": 219.0082513999987,
                    "s1_onset_cor": 219.2120146999987,
                    "s2_onset_cor": 224.2433457999996,
                    "isi": 4.75,
                    "iti": 0.05,
                    "s1_filename": "stim\\hp_c_02.jpg",
                    "s2_filename": "stim\\mock1_f_03.jpg",
                    "s1_category": "hp",
                    "s2_category": "mock1",
                    "elapsed_since_previous": 7.9949682999995275,
                    "timer": 213.9899964999986,
                    "tag": 219.0082513999987,
                    "block_start": 254.61763729999984,
                    "first_tag_trigger": 51.4597689000002
                },
                {
                    "trial_number": 27,
                    "global_trial_number": 27,
                    "trial_type": 4,
                    "condition": "neutral",
                    "reaction_time": 5000,
                    "button_press": 0,
                    "response_correct": false,
                    "is_target": "normal",
                    "target_accuracy": "correct",
                    "trial_trigger_time": 279.46397400000023,
                    "s1_onset": 279.71827289999965,
                    "s2_onset": 284.23353270000007,
                    "trial_trigger_time_cor": 228.00420510000004,
                    "s1_onset_cor": 228.25850399999945,
                    "s2_onset_cor": 232.77376379999987,
                    "isi": 4.25,
                    "iti": 0.05,
                    "s1_filename": "stim\\mock3_c_05.jpg",
                    "s2_filename": "stim\\mock3_f_04.jpg",
                    "s1_category": "mock3",
                    "s2_category": "mock3",
                    "elapsed_since_previous": 8.995953700001337,
                    "timer": 222.98595019999993,
                    "tag": 228.00420510000004,
                    "block_start": 254.61763729999984,
                    "first_tag_trigger": 51.4597689000002
                },
                {
                    "trial_number": 28,
                    "global_trial_number": 28,
                    "trial_type": 3,
                    "condition": "incoherent_mock",
                    "reaction_time": 5000,
                    "button_press": 0,
                    "response_correct": false,
                    "is_target": "normal",
                    "target_accuracy": "correct",
                    "trial_trigger_time": 286.465970199999,
                    "s1_onset": 286.7156113000001,
                    "s2_onset": 291.9968697000004,
                    "trial_trigger_time_cor": 235.0062012999988,
                    "s1_onset_cor": 235.2558423999999,
                    "s2_onset_cor": 240.5371008000002,
                    "isi": 5,
                    "iti": 0.05,
                    "s1_filename": "stim\\am_c_01.jpg",
                    "s2_filename": "stim\\mock4_f_05.jpg",
                    "s1_category": "am",
                    "s2_category": "mock4",
                    "elapsed_since_previous": 7.001996199998757,
                    "timer": 229.9879463999987,
                    "tag": 235.0062012999988,
                    "block_start": 254.61763729999984,
                    "first_tag_trigger": 51.4597689000002
                },
                {
                    "trial_number": 29,
                    "global_trial_number": 29,
                    "trial_type": 1,
                    "condition": "target",
                    "reaction_time": 5000,
                    "button_press": 0,
                    "response_correct": false,
                    "is_target": "target",
                    "target_accuracy": "missed",
                    "trial_trigger_time": 294.46800729999995,
                    "s1_onset": 294.6791486000002,
                    "s2_onset": 299.194190799999,
                    "trial_trigger_time_cor": 243.00823839999975,
                    "s1_onset_cor": 243.2193797,
                    "s2_onset_cor": 247.73442189999878,
                    "isi": 4.25,
                    "iti": 0.05,
                    "s1_filename": "stim\\poc_c_03.jpg",
                    "s2_filename": "stim\\poc_f_04.jpg",
                    "s1_category": "poc",
                    "s2_category": "poc",
                    "elapsed_since_previous": 8.002037100000962,
                    "timer": 237.98998349999965,
                    "tag": 243.00823839999975,
                    "block_start": 254.61763729999984,
                    "first_tag_trigger": 51.4597689000002
                },
                {
                    "trial_number": 30,
                    "global_trial_number": 30,
                    "trial_type": 4,
                    "condition": "neutral",
                    "reaction_time": 5000,
                    "button_press": 0,
                    "response_correct": false,
                    "is_target": "normal",
                    "target_accuracy": "correct",
                    "trial_trigger_time": 301.46799999999894,
                    "s1_onset": 301.6929676999989,
                    "s2_onset": 306.7078392000003,
                    "trial_trigger_time_cor": 250.00823109999874,
                    "s1_onset_cor": 250.23319879999872,
                    "s2_onset_cor": 255.2480703000001,
                    "isi": 4.75,
                    "iti": 0.05,
                    "s1_filename": "stim\\mock4_c_03.jpg",
                    "s2_filename": "stim\\mock1_f_01.jpg",
                    "s1_category": "mock4",
                    "s2_category": "mock1",
                    "elapsed_since_previous": 6.999992699998984,
                    "timer": 244.98997619999864,
                    "tag": 250.00823109999874,
                    "block_start": 254.61763729999984,
                    "first_tag_trigger": 51.4597689000002
                }
            ]
        },
        {
            "block_number": 2,
            "block_type": "Alternation Block",
            "trials": [
                {
                    "trial_number": 1,
                    "global_trial_number": 31,
                    "trial_type": 1,
                    "condition": "coherent",
                    "reaction_time": 5000,
                    "button_press": 0,
                    "response_correct": false,
                    "is_target": "normal",
                    "target_accuracy": "correct",
                    "trial_trigger_time": 322.4690025,
                    "s1_onset": 322.70134599999983,
                    "s2_onset": 327.48264149999886,
                    "trial_trigger_time_cor": 271.0092335999998,
                    "s1_onset_cor": 271.24157709999963,
                    "s2_onset_cor": 276.02287259999866,
                    "isi": 4.5,
                    "iti": 0.05,
                    "s1_filename": "stim\\hp_c_03.jpg",
                    "s2_filename": "stim\\hp_f_05.jpg",
                    "s1_category": "hp",
                    "s2_category": "hp",
                    "elapsed_since_previous": 21.00100250000105,
                    "timer": 265.9909786999997,
                    "tag": 271.0092335999998,
                    "block_start": 254.61763729999984,
                    "first_tag_trigger": 51.4597689000002
                },
                {
                    "trial_number": 2,
                    "global_trial_number": 32,
                    "trial_type": 1,
                    "condition": "coherent",
                    "reaction_time": 5000,
                    "button_press": 0,
                    "response_correct": false,
                    "is_target": "normal",
                    "target_accuracy": "correct",
                    "trial_trigger_time": 332.46899010000016,
                    "s1_onset": 332.7972265999997,
                    "s2_onset": 337.32869159999973,
                    "trial_trigger_time_cor": 281.00922119999996,
                    "s1_onset_cor": 281.3374576999995,
                    "s2_onset_cor": 285.86892269999953,
                    "isi": 4.25,
                    "iti": 0.05,
                    "s1_filename": "stim\\am_c_03.jpg",
                    "s2_filename": "stim\\am_f_04.jpg",
                    "s1_category": "am",
                    "s2_category": "am",
                    "elapsed_since_previous": 9.999987600000168,
                    "timer": 275.99096629999985,
                    "tag": 281.00922119999996,
                    "block_start": 254.61763729999984,
                    "first_tag_trigger": 51.4597689000002
                },
                {
                    "trial_number": 3,
                    "global_trial_number": 33,
                    "trial_type": 2,
                    "condition": "incoherent_real",
                    "reaction_time": 5000,
                    "button_press": 0,
                    "response_correct": false,
                    "is_target": "normal",
                    "target_accuracy": "correct",
                    "trial_trigger_time": 340.4690018000001,
                    "s1_onset": 340.69380379999893,
                    "s2_onset": 345.70851969999967,
                    "trial_trigger_time_cor": 289.0092328999999,
                    "s1_onset_cor": 289.23403489999873,
                    "s2_onset_cor": 294.24875079999947,
                    "isi": 4.75,
                    "iti": 0.05,
                    "s1_filename": "stim\\poc_c_02.jpg",
                    "s2_filename": "stim\\am_f_03.jpg",
                    "s1_category": "poc",
                    "s2_category": "am",
                    "elapsed_since_previous": 8.000011699999959,
                    "timer": 283.9909779999998,
                    "tag": 289.0092328999999,
                    "block_start": 254.61763729999984,
                    "first_tag_trigger": 51.4597689000002
                },
                {
                    "trial_number": 4,
                    "global_trial_number": 34,
                    "trial_type": 3,
                    "condition": "incoherent_mock",
                    "reaction_time": 5000,
                    "button_press": 0,
                    "response_correct": false,
                    "is_target": "normal",
                    "target_accuracy": "correct",
                    "trial_trigger_time": 350.47000750000007,
                    "s1_onset": 350.6898650999992,
                    "s2_onset": 355.72120170000017,
                    "trial_trigger_time_cor": 299.01023859999987,
                    "s1_onset_cor": 299.230096199999,
                    "s2_onset_cor": 304.26143279999997,
                    "isi": 4.75,
                    "iti": 0.05,
                    "s1_filename": "stim\\am_c_05.jpg",
                    "s2_filename": "stim\\mock1_f_04.jpg",
                    "s1_category": "am",
                    "s2_category": "mock1",
                    "elapsed_since_previous": 10.00100569999995,
                    "timer": 293.99198369999976,
                    "tag": 299.01023859999987,
                    "block_start": 254.61763729999984,
                    "first_tag_trigger": 51.4597689000002
                },
                {
                    "trial_number": 5,
                    "global_trial_number": 35,
                    "trial_type": 3,
                    "condition": "incoherent_mock",
                    "reaction_time": 5000,
                    "button_press": 0,
                    "response_correct": false,
                    "is_target": "normal",
                    "target_accuracy": "correct",
                    "trial_trigger_time": 360.46399609999935,
                    "s1_onset": 360.7525330999997,
                    "s2_onset": 365.5338644000003,
                    "trial_trigger_time_cor": 309.00422719999915,
                    "s1_onset_cor": 309.2927641999995,
                    "s2_onset_cor": 314.0740955000001,
                    "isi": 4.5,
                    "iti": 0.05,
                    "s1_filename": "stim\\poc_c_01.jpg",
                    "s2_filename": "stim\\mock1_f_05.jpg",
                    "s1_category": "poc",
                    "s2_category": "mock1",
                    "elapsed_since_previous": 9.993988599999284,
                    "timer": 303.98597229999905,
                    "tag": 309.00422719999915,
                    "block_start": 254.61763729999984,
                    "first_tag_trigger": 51.4597689000002
                },
                {
                    "trial_number": 6,
                    "global_trial_number": 36,
                    "trial_type": 1,
                    "condition": "coherent",
                    "reaction_time": 5000,
                    "button_press": 0,
                    "response_correct": false,
                    "is_target": "normal",
                    "target_accuracy": "correct",
                    "trial_trigger_time": 370.4640067,
                    "s1_onset": 370.6651299999994,
                    "s2_onset": 375.9463599999999,
                    "trial_trigger_time_cor": 319.0042377999998,
                    "s1_onset_cor": 319.2053610999992,
                    "s2_onset_cor": 324.4865910999997,
                    "isi": 5,
                    "iti": 0.05,
                    "s1_filename": "stim\\hp_c_01.jpg",
                    "s2_filename": "stim\\hp_f_01.jpg",
                    "s1_category": "hp",
                    "s2_category": "hp",
                    "elapsed_since_previous": 10.000010600000678,
                    "timer": 313.9859828999997,
                    "tag": 319.0042377999998,
                    "block_start": 254.61763729999984,
                    "first_tag_trigger": 51.4597689000002
                },
                {
                    "trial_number": 7,
                    "global_trial_number": 37,
                    "trial_type": 3,
                    "condition": "incoherent_mock",
                    "reaction_time": 5000,
                    "button_press": 0,
                    "response_correct": false,
                    "is_target": "normal",
                    "target_accuracy": "correct",
                    "trial_trigger_time": 378.4700066000005,
                    "s1_onset": 378.71186209999905,
                    "s2_onset": 383.24341470000036,
                    "trial_trigger_time_cor": 327.0102377000003,
                    "s1_onset_cor": 327.25209319999885,
                    "s2_onset_cor": 331.78364580000016,
                    "isi": 4.25,
                    "iti": 0.05,
                    "s1_filename": "stim\\poc_c_05.jpg",
                    "s2_filename": "stim\\mock2_f_01.jpg",
                    "s1_category": "poc",
                    "s2_category": "mock2",
                    "elapsed_since_previous": 8.005999900000461,
                    "timer": 321.9919828000002,
                    "tag": 327.0102377000003,
                    "block_start": 254.61763729999984,
                    "first_tag_trigger": 51.4597689000002
                },
                {
                    "trial_number": 8,
                    "global_trial_number": 38,
                    "trial_type": 2,
                    "condition": "incoherent_real",
                    "reaction_time": 5000,
                    "button_press": 0,
                    "response_correct": false,
                    "is_target": "normal",
                    "target_accuracy": "correct",
                    "trial_trigger_time": 387.4669802999997,
                    "s1_onset": 387.7248632999999,
                    "s2_onset": 392.5063322999995,
                    "trial_trigger_time_cor": 336.0072113999995,
                    "s1_onset_cor": 336.2650943999997,
                    "s2_onset_cor": 341.0465633999993,
                    "isi": 4.5,
                    "iti": 0.05,
                    "s1_filename": "stim\\im_c_04.jpg",
                    "s2_filename": "stim\\am_f_01.jpg",
                    "s1_category": "im",
                    "s2_category": "am",
                    "elapsed_since_previous": 8.996973699999216,
                    "timer": 330.9889564999994,
                    "tag": 336.0072113999995,
                    "block_start": 254.61763729999984,
                    "first_tag_trigger": 51.4597689000002
                },
                {
                    "trial_number": 9,
                    "global_trial_number": 39,
                    "trial_type": 4,
                    "condition": "neutral",
                    "reaction_time": 5000,
                    "button_press": 0,
                    "response_correct": false,
                    "is_target": "normal",
                    "target_accuracy": "correct",
                    "trial_trigger_time": 397.47092639999937,
                    "s1_onset": 397.7375718000003,
                    "s2_onset": 402.76877570000033,
                    "trial_trigger_time_cor": 346.0111574999992,
                    "s1_onset_cor": 346.2778029000001,
                    "s2_onset_cor": 351.30900680000013,
                    "isi": 4.75,
                    "iti": 0.05,
                    "s1_filename": "stim\\mock3_c_01.jpg",
                    "s2_filename": "stim\\mock3_f_02.jpg",
                    "s1_category": "mock3",
                    "s2_category": "mock3",
                    "elapsed_since_previous": 10.003946099999666,
                    "timer": 340.99290259999907,
                    "tag": 346.0111574999992,
                    "block_start": 254.61763729999984,
                    "first_tag_trigger": 51.4597689000002
                },
                {
                    "trial_number": 10,
                    "global_trial_number": 40,
                    "trial_type": 2,
                    "condition": "incoherent_real",
                    "reaction_time": 5000,
                    "button_press": 0,
                    "response_correct": false,
                    "is_target": "normal",
                    "target_accuracy": "correct",
                    "trial_trigger_time": 405.4639683000005,
                    "s1_onset": 405.78441310000017,
                    "s2_onset": 410.0658378999997,
                    "trial_trigger_time_cor": 354.0041994000003,
                    "s1_onset_cor": 354.32464419999997,
                    "s2_onset_cor": 358.6060689999995,
                    "isi": 4,
                    "iti": 0.05,
                    "s1_filename": "stim\\poc_c_04.jpg",
                    "s2_filename": "stim\\mock4_f_02.jpg",
                    "s1_category": "poc",
                    "s2_category": "mock4",
                    "elapsed_since_previous": 7.993041900001117,
                    "timer": 348.9859445000002,
                    "tag": 354.0041994000003,
                    "block_start": 254.61763729999984,
                    "first_tag_trigger": 51.4597689000002
                },
                {
                    "trial_number": 11,
                    "global_trial_number": 41,
                    "trial_type": 2,
                    "condition": "incoherent_real",
                    "reaction_time": 5000,
                    "button_press": 0,
                    "response_correct": false,
                    "is_target": "normal",
                    "target_accuracy": "correct",
                    "trial_trigger_time": 413.4739298000004,
                    "s1_onset": 413.7644148999989,
                    "s2_onset": 419.04543249999915,
                    "trial_trigger_time_cor": 362.0141609000002,
                    "s1_onset_cor": 362.3046459999987,
                    "s2_onset_cor": 367.58566359999895,
                    "isi": 5,
                    "iti": 0.05,
                    "s1_filename": "stim\\hp_c_05.jpg",
                    "s2_filename": "stim\\mock2_f_03.jpg",
                    "s1_category": "hp",
                    "s2_category": "mock2",
                    "elapsed_since_previous": 8.009961499999918,
                    "timer": 356.9959060000001,
                    "tag": 362.0141609000002,
                    "block_start": 254.61763729999984,
                    "first_tag_trigger": 51.4597689000002
                },
                {
                    "trial_number": 12,
                    "global_trial_number": 42,
                    "trial_type": 2,
                    "condition": "incoherent_real",
                    "reaction_time": 5000,
                    "button_press": 0,
                    "response_correct": false,
                    "is_target": "normal",
                    "target_accuracy": "correct",
                    "trial_trigger_time": 421.4639714999994,
                    "s1_onset": 421.7945112999987,
                    "s2_onset": 426.55908780000027,
                    "trial_trigger_time_cor": 370.0042025999992,
                    "s1_onset_cor": 370.3347423999985,
                    "s2_onset_cor": 375.09931890000007,
                    "isi": 4.5,
                    "iti": 0.05,
                    "s1_filename": "stim\\im_c_02.jpg",
                    "s2_filename": "stim\\mock3_f_03.jpg",
                    "s1_category": "im",
                    "s2_category": "mock3",
                    "elapsed_since_previous": 7.990041699998983,
                    "timer": 364.9859476999991,
                    "tag": 370.0042025999992,
                    "block_start": 254.61763729999984,
                    "first_tag_trigger": 51.4597689000002
                },
                {
                    "trial_number": 13,
                    "global_trial_number": 43,
                    "trial_type": 1,
                    "condition": "coherent",
                    "reaction_time": 5000,
                    "button_press": 0,
                    "response_correct": false,
                    "is_target": "normal",
                    "target_accuracy": "correct",
                    "trial_trigger_time": 431.46501929999977,
                    "s1_onset": 431.6905014999993,
                    "s2_onset": 436.47192299999915,
                    "trial_trigger_time_cor": 380.00525039999957,
                    "s1_onset_cor": 380.2307325999991,
                    "s2_onset_cor": 385.01215409999895,
                    "isi": 4.5,
                    "iti": 0.05,
                    "s1_filename": "stim\\am_c_02.jpg",
                    "s2_filename": "stim\\am_f_04.jpg",
                    "s1_category": "am",
                    "s2_category": "am",
                    "elapsed_since_previous": 10.001047800000379,
                    "timer": 374.98699549999947,
                    "tag": 380.00525039999957,
                    "block_start": 254.61763729999984,
                    "first_tag_trigger": 51.4597689000002
                },
                {
                    "trial_number": 14,
                    "global_trial_number": 44,
                    "trial_type": 1,
                    "condition": "coherent",
                    "reaction_time": 5000,
                    "button_press": 0,
                    "response_correct": false,
                    "is_target": "normal",
                    "target_accuracy": "correct",
                    "trial_trigger_time": 441.47801959999924,
                    "s1_onset": 441.71982579999894,
                    "s2_onset": 446.75097280000045,
                    "trial_trigger_time_cor": 390.01825069999904,
                    "s1_onset_cor": 390.26005689999874,
                    "s2_onset_cor": 395.29120390000026,
                    "isi": 4.75,
                    "iti": 0.05,
                    "s1_filename": "stim\\im_c_05.jpg",
                    "s2_filename": "stim\\im_f_05.jpg",
                    "s1_category": "im",
                    "s2_category": "im",
                    "elapsed_since_previous": 10.013000299999476,
                    "timer": 384.99999579999894,
                    "tag": 390.01825069999904,
                    "block_start": 254.61763729999984,
                    "first_tag_trigger": 51.4597689000002
                },
                {
                    "trial_number": 15,
                    "global_trial_number": 45,
                    "trial_type": 2,
                    "condition": "incoherent_real",
                    "reaction_time": 5000,
                    "button_press": 0,
                    "response_correct": false,
                    "is_target": "normal",
                    "target_accuracy": "correct",
                    "trial_trigger_time": 450.4750069999991,
                    "s1_onset": 450.68290499999966,
                    "s2_onset": 455.46424079999997,
                    "trial_trigger_time_cor": 399.0152380999989,
                    "s1_onset_cor": 399.22313609999946,
                    "s2_onset_cor": 404.00447189999977,
                    "isi": 4.5,
                    "iti": 0.05,
                    "s1_filename": "stim\\hp_c_04.jpg",
                    "s2_filename": "stim\\mock4_f_01.jpg",
                    "s1_category": "hp",
                    "s2_category": "mock4",
                    "elapsed_since_previous": 8.996987399999853,
                    "timer": 393.9969831999988,
                    "tag": 399.0152380999989,
                    "block_start": 254.61763729999984,
                    "first_tag_trigger": 51.4597689000002
                },
                {
                    "trial_number": 16,
                    "global_trial_number": 46,
                    "trial_type": 1,
                    "condition": "coherent",
                    "reaction_time": 5000,
                    "button_press": 0,
                    "response_correct": false,
                    "is_target": "normal",
                    "target_accuracy": "correct",
                    "trial_trigger_time": 459.47299980000025,
                    "s1_onset": 459.7125455000005,
                    "s2_onset": 464.2439713999993,
                    "trial_trigger_time_cor": 408.01323090000005,
                    "s1_onset_cor": 408.2527766000003,
                    "s2_onset_cor": 412.7842024999991,
                    "isi": 4.25,
                    "iti": 0.05,
                    "s1_filename": "stim\\im_c_01.jpg",
                    "s2_filename": "stim\\im_f_03.jpg",
                    "s1_category": "im",
                    "s2_category": "im",
                    "elapsed_since_previous": 8.997992800001157,
                    "timer": 402.99497599999995,
                    "tag": 408.01323090000005,
                    "block_start": 254.61763729999984,
                    "first_tag_trigger": 51.4597689000002
                },
                {
                    "trial_number": 17,
                    "global_trial_number": 47,
                    "trial_type": 3,
                    "condition": "incoherent_mock",
                    "reaction_time": 5000,
                    "button_press": 0,
                    "response_correct": false,
                    "is_target": "normal",
                    "target_accuracy": "correct",
                    "trial_trigger_time": 468.4700023000005,
                    "s1_onset": 468.75894209999933,
                    "s2_onset": 473.0404992999993,
                    "trial_trigger_time_cor": 417.0102334000003,
                    "s1_onset_cor": 417.29917319999913,
                    "s2_onset_cor": 421.5807303999991,
                    "isi": 4,
                    "iti": 0.05,
                    "s1_filename": "stim\\am_c_04.jpg",
                    "s2_filename": "stim\\mock3_f_03.jpg",
                    "s1_category": "am",
                    "s2_category": "mock3",
                    "elapsed_since_previous": 8.997002500000235,
                    "timer": 411.9919785000002,
                    "tag": 417.0102334000003,
                    "block_start": 254.61763729999984,
                    "first_tag_trigger": 51.4597689000002
                },
                {
                    "trial_number": 18,
                    "global_trial_number": 48,
                    "trial_type": 4,
                    "condition": "neutral",
                    "reaction_time": 5000,
                    "button_press": 0,
                    "response_correct": false,
                    "is_target": "normal",
                    "target_accuracy": "correct",
                    "trial_trigger_time": 476.4760002999992,
                    "s1_onset": 476.72218559999965,
                    "s2_onset": 481.23711879999973,
                    "trial_trigger_time_cor": 425.016231399999,
                    "s1_onset_cor": 425.26241669999945,
                    "s2_onset_cor": 429.77734989999954,
                    "isi": 4.25,
                    "iti": 0.05,
                    "s1_filename": "stim\\mock4_c_05.jpg",
                    "s2_filename": "stim\\mock2_f_03.jpg",
                    "s1_category": "mock4",
                    "s2_category": "mock2",
                    "elapsed_since_previous": 8.005997999998726,
                    "timer": 419.9979764999989,
                    "tag": 425.016231399999,
                    "block_start": 254.61763729999984,
                    "first_tag_trigger": 51.4597689000002
                },
                {
                    "trial_number": 19,
                    "global_trial_number": 49,
                    "trial_type": 1,
                    "condition": "coherent",
                    "reaction_time": 5000,
                    "button_press": 0,
                    "response_correct": false,
                    "is_target": "normal",
                    "target_accuracy": "correct",
                    "trial_trigger_time": 484.4649785999991,
                    "s1_onset": 484.6858190999992,
                    "s2_onset": 489.9670836999994,
                    "trial_trigger_time_cor": 433.0052096999989,
                    "s1_onset_cor": 433.226050199999,
                    "s2_onset_cor": 438.5073147999992,
                    "isi": 5,
                    "iti": 0.05,
                    "s1_filename": "stim\\im_c_03.jpg",
                    "s2_filename": "stim\\im_f_01.jpg",
                    "s1_category": "im",
                    "s2_category": "im",
                    "elapsed_since_previous": 7.9889782999998715,
                    "timer": 427.9869547999988,
                    "tag": 433.0052096999989,
                    "block_start": 254.61763729999984,
                    "first_tag_trigger": 51.4597689000002
                },
                {
                    "trial_number": 20,
                    "global_trial_number": 50,
                    "trial_type": 4,
                    "condition": "neutral",
                    "reaction_time": 5000,
                    "button_press": 0,
                    "response_correct": false,
                    "is_target": "normal",
                    "target_accuracy": "correct",
                    "trial_trigger_time": 492.4660014000001,
                    "s1_onset": 492.69920900000034,
                    "s2_onset": 497.2309043000005,
                    "trial_trigger_time_cor": 441.0062324999999,
                    "s1_onset_cor": 441.23944010000014,
                    "s2_onset_cor": 445.7711354000003,
                    "isi": 4.25,
                    "iti": 0.05,
                    "s1_filename": "stim\\mock1_c_01.jpg",
                    "s2_filename": "stim\\mock4_f_01.jpg",
                    "s1_category": "mock1",
                    "s2_category": "mock4",
                    "elapsed_since_previous": 8.00102280000101,
                    "timer": 435.9879775999998,
                    "tag": 441.0062324999999,
                    "block_start": 254.61763729999984,
                    "first_tag_trigger": 51.4597689000002
                },
                {
                    "trial_number": 21,
                    "global_trial_number": 51,
                    "trial_type": 3,
                    "condition": "incoherent_mock",
                    "reaction_time": 5000,
                    "button_press": 0,
                    "response_correct": false,
                    "is_target": "normal",
                    "target_accuracy": "correct",
                    "trial_trigger_time": 501.4720037999996,
                    "s1_onset": 501.7122526999992,
                    "s2_onset": 506.9934641,
                    "trial_trigger_time_cor": 450.0122348999994,
                    "s1_onset_cor": 450.252483799999,
                    "s2_onset_cor": 455.5336951999998,
                    "isi": 5,
                    "iti": 0.05,
                    "s1_filename": "stim\\hp_c_05.jpg",
                    "s2_filename": "stim\\mock4_f_02.jpg",
                    "s1_category": "hp",
                    "s2_category": "mock4",
                    "elapsed_since_previous": 9.006002399999488,
                    "timer": 444.9939799999993,
                    "tag": 450.0122348999994,
                    "block_start": 254.61763729999984,
                    "first_tag_trigger": 51.4597689000002
                },
                {
                    "trial_number": 22,
                    "global_trial_number": 52,
                    "trial_type": 4,
                    "condition": "neutral",
                    "reaction_time": 5000,
                    "button_press": 0,
                    "response_correct": false,
                    "is_target": "normal",
                    "target_accuracy": "correct",
                    "trial_trigger_time": 509.46598409999933,
                    "s1_onset": 509.77577589999964,
                    "s2_onset": 514.8070239999997,
                    "trial_trigger_time_cor": 458.00621519999913,
                    "s1_onset_cor": 458.31600699999944,
                    "s2_onset_cor": 463.34725509999953,
                    "isi": 4.75,
                    "iti": 0.05,
                    "s1_filename": "stim\\mock4_c_04.jpg",
                    "s2_filename": "stim\\hp_f_02.jpg",
                    "s1_category": "mock4",
                    "s2_category": "hp",
                    "elapsed_since_previous": 7.993980299999748,
                    "timer": 452.98796029999903,
                    "tag": 458.00621519999913,
                    "block_start": 254.61763729999984,
                    "first_tag_trigger": 51.4597689000002
                },
                {
                    "trial_number": 23,
                    "global_trial_number": 53,
                    "trial_type": 3,
                    "condition": "target",
                    "reaction_time": 5000,
                    "button_press": 0,
                    "response_correct": false,
                    "is_target": "target",
                    "target_accuracy": "missed",
                    "trial_trigger_time": 517.4749966999989,
                    "s1_onset": 517.7392048000002,
                    "s2_onset": 522.2705781999994,
                    "trial_trigger_time_cor": 466.0152277999987,
                    "s1_onset_cor": 466.27943589999995,
                    "s2_onset_cor": 470.81080929999916,
                    "isi": 4.25,
                    "iti": 0.05,
                    "s1_filename": "stim\\poc_c_02.jpg",
                    "s2_filename": "stim\\im_f_02.jpg",
                    "s1_category": "poc",
                    "s2_category": "im",
                    "elapsed_since_previous": 8.00901259999955,
                    "timer": 460.9969728999986,
                    "tag": 466.0152277999987,
                    "block_start": 254.61763729999984,
                    "first_tag_trigger": 51.4597689000002
                },
                {
                    "trial_number": 24,
                    "global_trial_number": 54,
                    "trial_type": 1,
                    "condition": "coherent",
                    "reaction_time": 5000,
                    "button_press": 0,
                    "response_correct": false,
                    "is_target": "normal",
                    "target_accuracy": "correct",
                    "trial_trigger_time": 524.4649184999998,
                    "s1_onset": 524.686507299999,
                    "s2_onset": 529.4678605999998,
                    "trial_trigger_time_cor": 473.00514959999964,
                    "s1_onset_cor": 473.2267383999988,
                    "s2_onset_cor": 478.00809169999957,
                    "isi": 4.5,
                    "iti": 0.05,
                    "s1_filename": "stim\\hp_c_01.jpg",
                    "s2_filename": "stim\\hp_f_04.jpg",
                    "s1_category": "hp",
                    "s2_category": "hp",
                    "elapsed_since_previous": 6.989921800000957,
                    "timer": 467.98689469999954,
                    "tag": 473.00514959999964,
                    "block_start": 254.61763729999984,
                    "first_tag_trigger": 51.4597689000002
                },
                {
                    "trial_number": 25,
                    "global_trial_number": 55,
                    "trial_type": 1,
                    "condition": "coherent",
                    "reaction_time": 5000,
                    "button_press": 0,
                    "response_correct": false,
                    "is_target": "normal",
                    "target_accuracy": "correct",
                    "trial_trigger_time": 534.4739978999987,
                    "s1_onset": 534.6990047999989,
                    "s2_onset": 538.9806659999995,
                    "trial_trigger_time_cor": 483.0142289999985,
                    "s1_onset_cor": 483.2392358999987,
                    "s2_onset_cor": 487.5208970999993,
                    "isi": 4,
                    "iti": 0.05,
                    "s1_filename": "stim\\im_c_01.jpg",
                    "s2_filename": "stim\\im_f_04.jpg",
                    "s1_category": "im",
                    "s2_category": "im",
                    "elapsed_since_previous": 10.009079399998882,
                    "timer": 477.9959740999984,
                    "tag": 483.0142289999985,
                    "block_start": 254.61763729999984,
                    "first_tag_trigger": 51.4597689000002
                },
                {
                    "trial_number": 26,
                    "global_trial_number": 56,
                    "trial_type": 1,
                    "condition": "coherent",
                    "reaction_time": 5000,
                    "button_press": 0,
                    "response_correct": false,
                    "is_target": "normal",
                    "target_accuracy": "correct",
                    "trial_trigger_time": 542.476912099999,
                    "s1_onset": 542.695917699999,
                    "s2_onset": 546.9774579000004,
                    "trial_trigger_time_cor": 491.0171431999988,
                    "s1_onset_cor": 491.2361487999988,
                    "s2_onset_cor": 495.51768900000025,
                    "isi": 4,
                    "iti": 0.05,
                    "s1_filename": "stim\\poc_c_05.jpg",
                    "s2_filename": "stim\\poc_f_01.jpg",
                    "s1_category": "poc",
                    "s2_category": "poc",
                    "elapsed_since_previous": 8.002914200000305,
                    "timer": 485.9988882999987,
                    "tag": 491.0171431999988,
                    "block_start": 254.61763729999984,
                    "first_tag_trigger": 51.4597689000002
                },
                {
                    "trial_number": 27,
                    "global_trial_number": 57,
                    "trial_type": 4,
                    "condition": "neutral",
                    "reaction_time": 5000,
                    "button_press": 0,
                    "response_correct": false,
                    "is_target": "normal",
                    "target_accuracy": "correct",
                    "trial_trigger_time": 551.4719977999994,
                    "s1_onset": 551.7922760999991,
                    "s2_onset": 556.3237351999996,
                    "trial_trigger_time_cor": 500.0122288999992,
                    "s1_onset_cor": 500.3325071999989,
                    "s2_onset_cor": 504.86396629999945,
                    "isi": 4.25,
                    "iti": 0.05,
                    "s1_filename": "stim\\mock1_c_04.jpg",
                    "s2_filename": "stim\\mock1_f_03.jpg",
                    "s1_category": "mock1",
                    "s2_category": "mock1",
                    "elapsed_since_previous": 8.995085700000345,
                    "timer": 494.99397399999907,
                    "tag": 500.0122288999992,
                    "block_start": 254.61763729999984,
                    "first_tag_trigger": 51.4597689000002
                },
                {
                    "trial_number": 28,
                    "global_trial_number": 58,
                    "trial_type": 4,
                    "condition": "neutral",
                    "reaction_time": 5000,
                    "button_press": 0,
                    "response_correct": false,
                    "is_target": "normal",
                    "target_accuracy": "correct",
                    "trial_trigger_time": 560.4749888999995,
                    "s1_onset": 560.7552271000004,
                    "s2_onset": 565.0368311000002,
                    "trial_trigger_time_cor": 509.0152199999993,
                    "s1_onset_cor": 509.2954582000002,
                    "s2_onset_cor": 513.5770622,
                    "isi": 4,
                    "iti": 0.05,
                    "s1_filename": "stim\\mock3_c_03.jpg",
                    "s2_filename": "stim\\mock3_f_04.jpg",
                    "s1_category": "mock3",
                    "s2_category": "mock3",
                    "elapsed_since_previous": 9.002991100000145,
                    "timer": 503.9969650999992,
                    "tag": 509.0152199999993,
                    "block_start": 254.61763729999984,
                    "first_tag_trigger": 51.4597689000002
                },
                {
                    "trial_number": 29,
                    "global_trial_number": 59,
                    "trial_type": 4,
                    "condition": "target",
                    "reaction_time": 5000,
                    "button_press": 0,
                    "response_correct": false,
                    "is_target": "target",
                    "target_accuracy": "missed",
                    "trial_trigger_time": 568.4769342,
                    "s1_onset": 568.7354605,
                    "s2_onset": 573.2668343999994,
                    "trial_trigger_time_cor": 517.0171652999998,
                    "s1_onset_cor": 517.2756915999998,
                    "s2_onset_cor": 521.8070654999992,
                    "isi": 4.25,
                    "iti": 0.05,
                    "s1_filename": "stim\\mock1_c_05.jpg",
                    "s2_filename": "stim\\mock2_f_04.jpg",
                    "s1_category": "mock1",
                    "s2_category": "mock2",
                    "elapsed_since_previous": 8.001945300000443,
                    "timer": 511.99891039999966,
                    "tag": 517.0171652999998,
                    "block_start": 254.61763729999984,
                    "first_tag_trigger": 51.4597689000002
                },
                {
                    "trial_number": 30,
                    "global_trial_number": 60,
                    "trial_type": 4,
                    "condition": "neutral",
                    "reaction_time": 5000,
                    "button_press": 0,
                    "response_correct": false,
                    "is_target": "normal",
                    "target_accuracy": "correct",
                    "trial_trigger_time": 576.4749187999987,
                    "s1_onset": 576.732031399999,
                    "s2_onset": 581.2636872999992,
                    "trial_trigger_time_cor": 525.0151498999985,
                    "s1_onset_cor": 525.2722624999988,
                    "s2_onset_cor": 529.803918399999,
                    "isi": 4.25,
                    "iti": 0.05,
                    "s1_filename": "stim\\mock4_c_02.jpg",
                    "s2_filename": "stim\\mock1_f_04.jpg",
                    "s1_category": "mock4",
                    "s2_category": "mock1",
                    "elapsed_since_previous": 7.997984599998745,
                    "timer": 519.9968949999984,
                    "tag": 525.0151498999985,
                    "block_start": 254.61763729999984,
                    "first_tag_trigger": 51.4597689000002
                }
            ]
        }
    ]
}