{
    "participant": {
        "id": "JF",
        "name": ""
    },
    "run": "2",
    "debug_mode": false,
    "testing": false,
    "monitor": {
        "name": "MyMonitor",
        "resolution": [
            1920,
            1080
        ],
        "width_cm": 42.0,
        "distance_cm": 57.0
    },
    "experiment_start": null,
    "experiment_end": "2026-01-12T11:50:21.613173",
    "total_duration_sec": null,
    "blocks": [
        {
            "block_number": 1,
            "block_type": "Alternation Block",
            "trials": [
                {
                    "trial_number": 1,
                    "global_trial_number": 1,
                    "trial_type": 4,
                    "condition": "neutral",
                    "reaction_time": 5000,
                    "button_press": 0,
                    "response_correct": false,
                    "is_target": "normal",
                    "target_accuracy": "correct",
                    "trial_trigger_time": 27.958892599999672,
                    "s1_onset": 28.371392200000628,
                    "s2_onset": 32.90284079999947,
                    "trial_trigger_time_cor": 7.0079249999998865,
                    "s1_onset_cor": 7.4204246000008425,
                    "s2_onset_cor": 11.951873199999682,
                    "isi": 4.25,
                    "iti": 0.05,
                    "s1_filename": "stim\\mock4_c_05.jpg",
                    "s2_filename": "stim\\im_f_02.jpg",
                    "s1_category": "mock4",
                    "s2_category": "im",
                    "elapsed_since_previous": 0,
                    "timer": 0.0,
                    "tag": 7.0079249999998865,
                    "block_start": 41.6404222000001,
                    "first_tag_trigger": 20.950967599999785
                },
                {
                    "trial_number": 2,
                    "global_trial_number": 2,
                    "trial_type": 3,
                    "condition": "incoherent_mock",
                    "reaction_time": 5000,
                    "button_press": 0,
                    "response_correct": false,
                    "is_target": "normal",
                    "target_accuracy": "correct",
                    "trial_trigger_time": 34.9619160000002,
                    "s1_onset": 35.252159600000596,
                    "s2_onset": 40.53306519999933,
                    "trial_trigger_time_cor": 14.010948400000416,
                    "s1_onset_cor": 14.30119200000081,
                    "s2_onset_cor": 19.582097599999543,
                    "isi": 5,
                    "iti": 0.05,
                    "s1_filename": "stim\\am_c_01.jpg",
                    "s2_filename": "stim\\mock3_f_04.jpg",
                    "s1_category": "am",
                    "s2_category": "mock3",
                    "elapsed_since_previous": 7.003023400000529,
                    "timer": 7.003023400000529,
                    "tag": 14.010948400000416,
                    "block_start": 41.6404222000001,
                    "first_tag_trigger": 20.950967599999785
                },
                {
                    "trial_number": 3,
                    "global_trial_number": 3,
                    "trial_type": 3,
                    "condition": "incoherent_mock",
                    "reaction_time": 5000,
                    "button_press": 0,
                    "response_correct": false,
                    "is_target": "normal",
                    "target_accuracy": "correct",
                    "trial_trigger_time": 43.96591679999983,
                    "s1_onset": 44.181653199999346,
                    "s2_onset": 48.46329449999939,
                    "trial_trigger_time_cor": 23.014949200000046,
                    "s1_onset_cor": 23.23068559999956,
                    "s2_onset_cor": 27.512326899999607,
                    "isi": 4,
                    "iti": 0.05,
                    "s1_filename": "stim\\poc_c_04.jpg",
                    "s2_filename": "stim\\mock1_f_05.jpg",
                    "s1_category": "poc",
                    "s2_category": "mock1",
                    "elapsed_since_previous": 9.00400079999963,
                    "timer": 16.00702420000016,
                    "tag": 23.014949200000046,
                    "block_start": 41.6404222000001,
                    "first_tag_trigger": 20.950967599999785
                },
                {
                    "trial_number": 4,
                    "global_trial_number": 4,
                    "trial_type": 3,
                    "condition": "incoherent_mock",
                    "reaction_time": 5000,
                    "button_press": 0,
                    "response_correct": false,
                    "is_target": "normal",
                    "target_accuracy": "correct",
                    "trial_trigger_time": 52.961920499999906,
                    "s1_onset": 53.21132170000055,
                    "s2_onset": 58.24271950000002,
                    "trial_trigger_time_cor": 32.01095290000012,
                    "s1_onset_cor": 32.26035410000077,
                    "s2_onset_cor": 37.291751900000236,
                    "isi": 4.75,
                    "iti": 0.05,
                    "s1_filename": "stim\\am_c_05.jpg",
                    "s2_filename": "stim\\mock1_f_01.jpg",
                    "s1_category": "am",
                    "s2_category": "mock1",
                    "elapsed_since_previous": 8.996003700000074,
                    "timer": 25.003027900000234,
                    "tag": 32.01095290000012,
                    "block_start": 41.6404222000001,
                    "first_tag_trigger": 20.950967599999785
                },
                {
                    "trial_number": 5,
                    "global_trial_number": 5,
                    "trial_type": 3,
                    "condition": "incoherent_mock",
                    "reaction_time": 5000,
                    "button_press": 0,
                    "response_correct": false,
                    "is_target": "normal",
                    "target_accuracy": "correct",
                    "trial_trigger_time": 61.96883659999912,
                    "s1_onset": 62.257527600000685,
                    "s2_onset": 67.27237240000068,
                    "trial_trigger_time_cor": 41.01786899999934,
                    "s1_onset_cor": 41.3065600000009,
                    "s2_onset_cor": 46.32140480000089,
                    "isi": 4.75,
                    "iti": 0.05,
                    "s1_filename": "stim\\poc_c_03.jpg",
                    "s2_filename": "stim\\mock_f_03.jpg",
                    "s1_category": "poc",
                    "s2_category": "mock",
                    "elapsed_since_previous": 9.006916099999216,
                    "timer": 34.00994399999945,
                    "tag": 41.01786899999934,
                    "block_start": 41.6404222000001,
                    "first_tag_trigger": 20.950967599999785
                },
                {
                    "trial_number": 6,
                    "global_trial_number": 6,
                    "trial_type": 3,
                    "condition": "incoherent_mock",
                    "reaction_time": 5000,
                    "button_press": 0,
                    "response_correct": false,
                    "is_target": "normal",
                    "target_accuracy": "correct",
                    "trial_trigger_time": 70.95792009999968,
                    "s1_onset": 71.20397090000006,
                    "s2_onset": 76.21879590000026,
                    "trial_trigger_time_cor": 50.0069524999999,
                    "s1_onset_cor": 50.25300330000027,
                    "s2_onset_cor": 55.267828300000474,
                    "isi": 4.75,
                    "iti": 0.05,
                    "s1_filename": "stim\\am_c_02.jpg",
                    "s2_filename": "stim\\mock4_f_05.jpg",
                    "s1_category": "am",
                    "s2_category": "mock4",
                    "elapsed_since_previous": 8.989083500000561,
                    "timer": 42.99902750000001,
                    "tag": 50.0069524999999,
                    "block_start": 41.6404222000001,
                    "first_tag_trigger": 20.950967599999785
                },
                {
                    "trial_number": 7,
                    "global_trial_number": 7,
                    "trial_type": 1,
                    "condition": "coherent",
                    "reaction_time": 5000,
                    "button_press": 0,
                    "response_correct": false,
                    "is_target": "normal",
                    "target_accuracy": "correct",
                    "trial_trigger_time": 80.95891370000027,
                    "s1_onset": 81.16679429999931,
                    "s2_onset": 85.44824030000018,
                    "trial_trigger_time_cor": 60.00794610000048,
                    "s1_onset_cor": 60.215826699999525,
                    "s2_onset_cor": 64.4972727000004,
                    "isi": 4,
                    "iti": 0.05,
                    "s1_filename": "stim\\hp_c_04.jpg",
                    "s2_filename": "stim\\hp_f_03.jpg",
                    "s1_category": "hp",
                    "s2_category": "hp",
                    "elapsed_since_previous": 10.000993600000584,
                    "timer": 53.000021100000595,
                    "tag": 60.00794610000048,
                    "block_start": 41.6404222000001,
                    "first_tag_trigger": 20.950967599999785
                },
                {
                    "trial_number": 8,
                    "global_trial_number": 8,
                    "trial_type": 1,
                    "condition": "target",
                    "reaction_time": 5000,
                    "button_press": 0,
                    "response_correct": false,
                    "is_target": "target",
                    "target_accuracy": "missed",
                    "trial_trigger_time": 88.96485170000051,
                    "s1_onset": 89.18027810000058,
                    "s2_onset": 93.96168190000026,
                    "trial_trigger_time_cor": 68.01388410000072,
                    "s1_onset_cor": 68.22931050000079,
                    "s2_onset_cor": 73.01071430000047,
                    "isi": 4.5,
                    "iti": 0.05,
                    "s1_filename": "stim\\am_c_03.jpg",
                    "s2_filename": "stim\\am_f_03.jpg",
                    "s1_category": "am",
                    "s2_category": "am",
                    "elapsed_since_previous": 8.005938000000242,
                    "timer": 61.00595910000084,
                    "tag": 68.01388410000072,
                    "block_start": 41.6404222000001,
                    "first_tag_trigger": 20.950967599999785
                },
                {
                    "trial_number": 9,
                    "global_trial_number": 9,
                    "trial_type": 1,
                    "condition": "coherent",
                    "reaction_time": 5000,
                    "button_press": 0,
                    "response_correct": false,
                    "is_target": "normal",
                    "target_accuracy": "correct",
                    "trial_trigger_time": 97.96184089999952,
                    "s1_onset": 98.29306050000014,
                    "s2_onset": 102.57479839999905,
                    "trial_trigger_time_cor": 77.01087329999973,
                    "s1_onset_cor": 77.34209290000035,
                    "s2_onset_cor": 81.62383079999927,
                    "isi": 4,
                    "iti": 0.05,
                    "s1_filename": "stim\\poc_c_05.jpg",
                    "s2_filename": "stim\\poc_f_04.jpg",
                    "s1_category": "poc",
                    "s2_category": "poc",
                    "elapsed_since_previous": 8.996989199999007,
                    "timer": 70.00294829999984,
                    "tag": 77.01087329999973,
                    "block_start": 41.6404222000001,
                    "first_tag_trigger": 20.950967599999785
                },
                {
                    "trial_number": 10,
                    "global_trial_number": 10,
                    "trial_type": 2,
                    "condition": "incoherent_real",
                    "reaction_time": 5000,
                    "button_press": 0,
                    "response_correct": false,
                    "is_target": "normal",
                    "target_accuracy": "correct",
                    "trial_trigger_time": 106.96092580000004,
                    "s1_onset": 107.25631959999919,
                    "s2_onset": 111.53783830000066,
                    "trial_trigger_time_cor": 86.00995820000026,
                    "s1_onset_cor": 86.3053519999994,
                    "s2_onset_cor": 90.58687070000087,
                    "isi": 4,
                    "iti": 0.05,
                    "s1_filename": "stim\\hp_c_02.jpg",
                    "s2_filename": "stim\\im_f_03.jpg",
                    "s1_category": "hp",
                    "s2_category": "im",
                    "elapsed_since_previous": 8.999084900000526,
                    "timer": 79.00203320000037,
                    "tag": 86.00995820000026,
                    "block_start": 41.6404222000001,
                    "first_tag_trigger": 20.950967599999785
                },
                {
                    "trial_number": 11,
                    "global_trial_number": 11,
                    "trial_type": 1,
                    "condition": "coherent",
                    "reaction_time": 5000,
                    "button_press": 0,
                    "response_correct": false,
                    "is_target": "normal",
                    "target_accuracy": "correct",
                    "trial_trigger_time": 114.96290760000011,
                    "s1_onset": 115.25296460000027,
                    "s2_onset": 119.78445490000013,
                    "trial_trigger_time_cor": 94.01194000000032,
                    "s1_onset_cor": 94.30199700000048,
                    "s2_onset_cor": 98.83348730000034,
                    "isi": 4.25,
                    "iti": 0.05,
                    "s1_filename": "stim\\im_c_01.jpg",
                    "s2_filename": "stim\\im_f_05.jpg",
                    "s1_category": "im",
                    "s2_category": "im",
                    "elapsed_since_previous": 8.001981800000067,
                    "timer": 87.00401500000044,
                    "tag": 94.01194000000032,
                    "block_start": 41.6404222000001,
                    "first_tag_trigger": 20.950967599999785
                },
                {
                    "trial_number": 12,
                    "global_trial_number": 12,
                    "trial_type": 1,
                    "condition": "coherent",
                    "reaction_time": 5000,
                    "button_press": 0,
                    "response_correct": false,
                    "is_target": "normal",
                    "target_accuracy": "correct",
                    "trial_trigger_time": 123.96192599999995,
                    "s1_onset": 124.18263879999904,
                    "s2_onset": 128.947478099999,
                    "trial_trigger_time_cor": 103.01095840000016,
                    "s1_onset_cor": 103.23167119999925,
                    "s2_onset_cor": 107.9965104999992,
                    "isi": 4.5,
                    "iti": 0.05,
                    "s1_filename": "stim\\am_c_04.jpg",
                    "s2_filename": "stim\\am_f_05.jpg",
                    "s1_category": "am",
                    "s2_category": "am",
                    "elapsed_since_previous": 8.99901839999984,
                    "timer": 96.00303340000028,
                    "tag": 103.01095840000016,
                    "block_start": 41.6404222000001,
                    "first_tag_trigger": 20.950967599999785
                },
                {
                    "trial_number": 13,
                    "global_trial_number": 13,
                    "trial_type": 1,
                    "condition": "coherent",
                    "reaction_time": 5000,
                    "button_press": 0,
                    "response_correct": false,
                    "is_target": "normal",
                    "target_accuracy": "correct",
                    "trial_trigger_time": 133.95692059999965,
                    "s1_onset": 134.21192539999902,
                    "s2_onset": 139.24341289999938,
                    "trial_trigger_time_cor": 113.00595299999986,
                    "s1_onset_cor": 113.26095779999923,
                    "s2_onset_cor": 118.2924452999996,
                    "isi": 4.75,
                    "iti": 0.05,
                    "s1_filename": "stim\\poc_c_02.jpg",
                    "s2_filename": "stim\\poc_f_02.jpg",
                    "s1_category": "poc",
                    "s2_category": "poc",
                    "elapsed_since_previous": 9.9949945999997,
                    "timer": 105.99802799999998,
                    "tag": 113.00595299999986,
                    "block_start": 41.6404222000001,
                    "first_tag_trigger": 20.950967599999785
                },
                {
                    "trial_number": 14,
                    "global_trial_number": 14,
                    "trial_type": 2,
                    "condition": "incoherent_real",
                    "reaction_time": 5000,
                    "button_press": 0,
                    "response_correct": false,
                    "is_target": "normal",
                    "target_accuracy": "correct",
                    "trial_trigger_time": 143.96491199999946,
                    "s1_onset": 144.25819570000021,
                    "s2_onset": 148.5395881000004,
                    "trial_trigger_time_cor": 123.01394439999967,
                    "s1_onset_cor": 123.30722810000043,
                    "s2_onset_cor": 127.58862050000062,
                    "isi": 4,
                    "iti": 0.05,
                    "s1_filename": "stim\\im_c_05.jpg",
                    "s2_filename": "stim\\am_f_02.jpg",
                    "s1_category": "im",
                    "s2_category": "am",
                    "elapsed_since_previous": 10.00799139999981,
                    "timer": 116.00601939999979,
                    "tag": 123.01394439999967,
                    "block_start": 41.6404222000001,
                    "first_tag_trigger": 20.950967599999785
                },
                {
                    "trial_number": 15,
                    "global_trial_number": 15,
                    "trial_type": 3,
                    "condition": "target",
                    "reaction_time": 5000,
                    "button_press": 0,
                    "response_correct": false,
                    "is_target": "target",
                    "target_accuracy": "missed",
                    "trial_trigger_time": 151.96990229999938,
                    "s1_onset": 152.204626499999,
                    "s2_onset": 156.969522899999,
                    "trial_trigger_time_cor": 131.0189346999996,
                    "s1_onset_cor": 131.2536588999992,
                    "s2_onset_cor": 136.0185552999992,
                    "isi": 4.5,
                    "iti": 0.05,
                    "s1_filename": "stim\\hp_c_03.jpg",
                    "s2_filename": "stim\\mock2_f_05.jpg",
                    "s1_category": "hp",
                    "s2_category": "mock2",
                    "elapsed_since_previous": 8.004990299999918,
                    "timer": 124.0110096999997,
                    "tag": 131.0189346999996,
                    "block_start": 41.6404222000001,
                    "first_tag_trigger": 20.950967599999785
                },
                {
                    "trial_number": 16,
                    "global_trial_number": 16,
                    "trial_type": 3,
                    "condition": "incoherent_mock",
                    "reaction_time": 5000,
                    "button_press": 0,
                    "response_correct": false,
                    "is_target": "normal",
                    "target_accuracy": "correct",
                    "trial_trigger_time": 161.96090569999978,
                    "s1_onset": 162.20073980000052,
                    "s2_onset": 166.73219980000067,
                    "trial_trigger_time_cor": 141.0099381,
                    "s1_onset_cor": 141.24977220000073,
                    "s2_onset_cor": 145.7812322000009,
                    "isi": 4.25,
                    "iti": 0.05,
                    "s1_filename": "stim\\im_c_02.jpg",
                    "s2_filename": "stim\\mock1_f_03.jpg",
                    "s1_category": "im",
                    "s2_category": "mock1",
                    "elapsed_since_previous": 9.991003400000409,
                    "timer": 134.0020131000001,
                    "tag": 141.0099381,
                    "block_start": 41.6404222000001,
                    "first_tag_trigger": 20.950967599999785
                },
                {
                    "trial_number": 17,
                    "global_trial_number": 17,
                    "trial_type": 4,
                    "condition": "neutral",
                    "reaction_time": 5000,
                    "button_press": 0,
                    "response_correct": false,
                    "is_target": "normal",
                    "target_accuracy": "correct",
                    "trial_trigger_time": 170.96686210000007,
                    "s1_onset": 171.21398450000015,
                    "s2_onset": 175.99526479999986,
                    "trial_trigger_time_cor": 150.0158945000003,
                    "s1_onset_cor": 150.26301690000037,
                    "s2_onset_cor": 155.04429720000007,
                    "isi": 4.5,
                    "iti": 0.05,
                    "s1_filename": "stim\\mock1_c_05.jpg",
                    "s2_filename": "stim\\mock3_f_01.jpg",
                    "s1_category": "mock1",
                    "s2_category": "mock3",
                    "elapsed_since_previous": 9.005956400000287,
                    "timer": 143.0079695000004,
                    "tag": 150.0158945000003,
                    "block_start": 41.6404222000001,
                    "first_tag_trigger": 20.950967599999785
                },
                {
                    "trial_number": 18,
                    "global_trial_number": 18,
                    "trial_type": 4,
                    "condition": "target",
                    "reaction_time": 5000,
                    "button_press": 0,
                    "response_correct": false,
                    "is_target": "target",
                    "target_accuracy": "missed",
                    "trial_trigger_time": 178.95789089999926,
                    "s1_onset": 179.19377709999935,
                    "s2_onset": 183.4590248000004,
                    "trial_trigger_time_cor": 158.00692329999947,
                    "s1_onset_cor": 158.24280949999957,
                    "s2_onset_cor": 162.50805720000062,
                    "isi": 4,
                    "iti": 0.05,
                    "s1_filename": "stim\\mock2_c_05.jpg",
                    "s2_filename": "stim\\mock3_f_05.jpg",
                    "s1_category": "mock2",
                    "s2_category": "mock3",
                    "elapsed_since_previous": 7.991028799999185,
                    "timer": 150.99899829999958,
                    "tag": 158.00692329999947,
                    "block_start": 41.6404222000001,
                    "first_tag_trigger": 20.950967599999785
                },
                {
                    "trial_number": 19,
                    "global_trial_number": 19,
                    "trial_type": 2,
                    "condition": "target",
                    "reaction_time": 5000,
                    "button_press": 0,
                    "response_correct": false,
                    "is_target": "target",
                    "target_accuracy": "missed",
                    "trial_trigger_time": 185.95598229999996,
                    "s1_onset": 186.15803810000034,
                    "s2_onset": 190.43945799999892,
                    "trial_trigger_time_cor": 165.00501470000017,
                    "s1_onset_cor": 165.20707050000055,
                    "s2_onset_cor": 169.48849039999914,
                    "isi": 4,
                    "iti": 0.05,
                    "s1_filename": "stim\\hp_c_05.jpg",
                    "s2_filename": "stim\\poc_f_03.jpg",
                    "s1_category": "hp",
                    "s2_category": "poc",
                    "elapsed_since_previous": 6.998091400000703,
                    "timer": 157.9970897000003,
                    "tag": 165.00501470000017,
                    "block_start": 41.6404222000001,
                    "first_tag_trigger": 20.950967599999785
                },
                {
                    "trial_number": 20,
                    "global_trial_number": 20,
                    "trial_type": 3,
                    "condition": "incoherent_mock",
                    "reaction_time": 5000,
                    "button_press": 0,
                    "response_correct": false,
                    "is_target": "normal",
                    "target_accuracy": "correct",
                    "trial_trigger_time": 194.95688680000058,
                    "s1_onset": 195.23731749999934,
                    "s2_onset": 200.25221710000005,
                    "trial_trigger_time_cor": 174.0059192000008,
                    "s1_onset_cor": 174.28634989999955,
                    "s2_onset_cor": 179.30124950000027,
                    "isi": 4.75,
                    "iti": 0.05,
                    "s1_filename": "stim\\poc_c_01.jpg",
                    "s2_filename": "stim\\mock2_f_04.jpg",
                    "s1_category": "poc",
                    "s2_category": "mock2",
                    "elapsed_since_previous": 9.000904500000615,
                    "timer": 166.9979942000009,
                    "tag": 174.0059192000008,
                    "block_start": 41.6404222000001,
                    "first_tag_trigger": 20.950967599999785
                },
                {
                    "trial_number": 21,
                    "global_trial_number": 21,
                    "trial_type": 1,
                    "condition": "coherent",
                    "reaction_time": 5000,
                    "button_press": 0,
                    "response_correct": false,
                    "is_target": "normal",
                    "target_accuracy": "correct",
                    "trial_trigger_time": 202.96502370000053,
                    "s1_onset": 203.267859399999,
                    "s2_onset": 207.79916380000031,
                    "trial_trigger_time_cor": 182.01405610000074,
                    "s1_onset_cor": 182.3168917999992,
                    "s2_onset_cor": 186.84819620000053,
                    "isi": 4.25,
                    "iti": 0.05,
                    "s1_filename": "stim\\hp_c_01.jpg",
                    "s2_filename": "stim\\hp_f_02.jpg",
                    "s1_category": "hp",
                    "s2_category": "hp",
                    "elapsed_since_previous": 8.008136899999954,
                    "timer": 175.00613110000086,
                    "tag": 182.01405610000074,
                    "block_start": 41.6404222000001,
                    "first_tag_trigger": 20.950967599999785
                },
                {
                    "trial_number": 22,
                    "global_trial_number": 22,
                    "trial_type": 2,
                    "condition": "incoherent_real",
                    "reaction_time": 5000,
                    "button_press": 0,
                    "response_correct": false,
                    "is_target": "normal",
                    "target_accuracy": "correct",
                    "trial_trigger_time": 209.95700570000008,
                    "s1_onset": 210.26490550000017,
                    "s2_onset": 215.5460335000007,
                    "trial_trigger_time_cor": 189.0060381000003,
                    "s1_onset_cor": 189.31393790000038,
                    "s2_onset_cor": 194.59506590000092,
                    "isi": 5,
                    "iti": 0.05,
                    "s1_filename": "stim\\im_c_04.jpg",
                    "s2_filename": "stim\\hp_f_01.jpg",
                    "s1_category": "im",
                    "s2_category": "hp",
                    "elapsed_since_previous": 6.9919819999995525,
                    "timer": 181.9981131000004,
                    "tag": 189.0060381000003,
                    "block_start": 41.6404222000001,
                    "first_tag_trigger": 20.950967599999785
                },
                {
                    "trial_number": 23,
                    "global_trial_number": 23,
                    "trial_type": 1,
                    "condition": "coherent",
                    "reaction_time": 5000,
                    "button_press": 0,
                    "response_correct": false,
                    "is_target": "normal",
                    "target_accuracy": "correct",
                    "trial_trigger_time": 219.96393679999892,
                    "s1_onset": 220.17755419999958,
                    "s2_onset": 224.45902319999914,
                    "trial_trigger_time_cor": 199.01296919999913,
                    "s1_onset_cor": 199.2265865999998,
                    "s2_onset_cor": 203.50805559999935,
                    "isi": 4,
                    "iti": 0.05,
                    "s1_filename": "stim\\poc_c_02.jpg",
                    "s2_filename": "stim\\poc_f_05.jpg",
                    "s1_category": "poc",
                    "s2_category": "poc",
                    "elapsed_since_previous": 10.006931099998837,
                    "timer": 192.00504419999925,
                    "tag": 199.01296919999913,
                    "block_start": 41.6404222000001,
                    "first_tag_trigger": 20.950967599999785
                },
                {
                    "trial_number": 24,
                    "global_trial_number": 24,
                    "trial_type": 1,
                    "condition": "coherent",
                    "reaction_time": 5000,
                    "button_press": 0,
                    "response_correct": false,
                    "is_target": "normal",
                    "target_accuracy": "correct",
                    "trial_trigger_time": 226.965922899999,
                    "s1_onset": 227.1748076999993,
                    "s2_onset": 231.70619129999977,
                    "trial_trigger_time_cor": 206.0149552999992,
                    "s1_onset_cor": 206.2238400999995,
                    "s2_onset_cor": 210.7552237,
                    "isi": 4.25,
                    "iti": 0.05,
                    "s1_filename": "stim\\im_c_03.jpg",
                    "s2_filename": "stim\\im_f_04.jpg",
                    "s1_category": "im",
                    "s2_category": "im",
                    "elapsed_since_previous": 7.001986100000067,
                    "timer": 199.00703029999931,
                    "tag": 206.0149552999992,
                    "block_start": 41.6404222000001,
                    "first_tag_trigger": 20.950967599999785
                },
                {
                    "trial_number": 25,
                    "global_trial_number": 25,
                    "trial_type": 1,
                    "condition": "coherent",
                    "reaction_time": 5000,
                    "button_press": 0,
                    "response_correct": false,
                    "is_target": "normal",
                    "target_accuracy": "correct",
                    "trial_trigger_time": 233.96592269999928,
                    "s1_onset": 234.27178110000023,
                    "s2_onset": 238.78674460000002,
                    "trial_trigger_time_cor": 213.0149550999995,
                    "s1_onset_cor": 213.32081350000044,
                    "s2_onset_cor": 217.83577700000023,
                    "isi": 4.25,
                    "iti": 0.05,
                    "s1_filename": "stim\\hp_c_04.jpg",
                    "s2_filename": "stim\\hp_f_05.jpg",
                    "s1_category": "hp",
                    "s2_category": "hp",
                    "elapsed_since_previous": 6.999999800000296,
                    "timer": 206.0070300999996,
                    "tag": 213.0149550999995,
                    "block_start": 41.6404222000001,
                    "first_tag_trigger": 20.950967599999785
                },
                {
                    "trial_number": 26,
                    "global_trial_number": 26,
                    "trial_type": 3,
                    "condition": "incoherent_mock",
                    "reaction_time": 5000,
                    "button_press": 0,
                    "response_correct": false,
                    "is_target": "normal",
                    "target_accuracy": "correct",
                    "trial_trigger_time": 241.96391640000002,
                    "s1_onset": 242.2851630999994,
                    "s2_onset": 246.55037470000025,
                    "trial_trigger_time_cor": 221.01294880000023,
                    "s1_onset_cor": 221.33419549999962,
                    "s2_onset_cor": 225.59940710000046,
                    "isi": 4,
                    "iti": 0.05,
                    "s1_filename": "stim\\im_c_05.jpg",
                    "s2_filename": "stim\\mock4_f_01.jpg",
                    "s1_category": "im",
                    "s2_category": "mock4",
                    "elapsed_since_previous": 7.997993700000734,
                    "timer": 214.00502380000034,
                    "tag": 221.01294880000023,
                    "block_start": 41.6404222000001,
                    "first_tag_trigger": 20.950967599999785
                },
                {
                    "trial_number": 27,
                    "global_trial_number": 27,
                    "trial_type": 1,
                    "condition": "coherent",
                    "reaction_time": 5000,
                    "button_press": 0,
                    "response_correct": false,
                    "is_target": "normal",
                    "target_accuracy": "correct",
                    "trial_trigger_time": 250.95806749999974,
                    "s1_onset": 251.28176340000027,
                    "s2_onset": 256.0465516000004,
                    "trial_trigger_time_cor": 230.00709989999996,
                    "s1_onset_cor": 230.3307958000005,
                    "s2_onset_cor": 235.0955840000006,
                    "isi": 4.5,
                    "iti": 0.05,
                    "s1_filename": "stim\\am_c_05.jpg",
                    "s2_filename": "stim\\am_f_04.jpg",
                    "s1_category": "am",
                    "s2_category": "am",
                    "elapsed_since_previous": 8.994151099999726,
                    "timer": 222.99917490000007,
                    "tag": 230.00709989999996,
                    "block_start": 41.6404222000001,
                    "first_tag_trigger": 20.950967599999785
                },
                {
                    "trial_number": 28,
                    "global_trial_number": 28,
                    "trial_type": 1,
                    "condition": "coherent",
                    "reaction_time": 5000,
                    "button_press": 0,
                    "response_correct": false,
                    "is_target": "normal",
                    "target_accuracy": "correct",
                    "trial_trigger_time": 260.9589028999999,
                    "s1_onset": 261.16102039999896,
                    "s2_onset": 266.17566179999994,
                    "trial_trigger_time_cor": 240.0079353000001,
                    "s1_onset_cor": 240.21005279999918,
                    "s2_onset_cor": 245.22469420000016,
                    "isi": 4.75,
                    "iti": 0.05,
                    "s1_filename": "stim\\poc_c_04.jpg",
                    "s2_filename": "stim\\poc_f_01.jpg",
                    "s1_category": "poc",
                    "s2_category": "poc",
                    "elapsed_since_previous": 10.000835400000142,
                    "timer": 233.0000103000002,
                    "tag": 240.0079353000001,
                    "block_start": 41.6404222000001,
                    "first_tag_trigger": 20.950967599999785
                },
                {
                    "trial_number": 29,
                    "global_trial_number": 29,
                    "trial_type": 3,
                    "condition": "incoherent_mock",
                    "reaction_time": 5000,
                    "button_press": 0,
                    "response_correct": false,
                    "is_target": "normal",
                    "target_accuracy": "correct",
                    "trial_trigger_time": 269.9649238000002,
                    "s1_onset": 270.19082700000035,
                    "s2_onset": 274.4724767000007,
                    "trial_trigger_time_cor": 249.0139562000004,
                    "s1_onset_cor": 249.23985940000057,
                    "s2_onset_cor": 253.5215091000009,
                    "isi": 4,
                    "iti": 0.05,
                    "s1_filename": "stim\\am_c_01.jpg",
                    "s2_filename": "stim\\mock4_f_02.jpg",
                    "s1_category": "am",
                    "s2_category": "mock4",
                    "elapsed_since_previous": 9.006020900000294,
                    "timer": 242.0060312000005,
                    "tag": 249.0139562000004,
                    "block_start": 41.6404222000001,
                    "first_tag_trigger": 20.950967599999785
                },
                {
                    "trial_number": 30,
                    "global_trial_number": 30,
                    "trial_type": 1,
                    "condition": "coherent",
                    "reaction_time": 5000,
                    "button_press": 0,
                    "response_correct": false,
                    "is_target": "normal",
                    "target_accuracy": "correct",
                    "trial_trigger_time": 277.95493369999895,
                    "s1_onset": 278.28764020000017,
                    "s2_onset": 282.5691119999992,
                    "trial_trigger_time_cor": 257.00396609999916,
                    "s1_onset_cor": 257.3366726000004,
                    "s2_onset_cor": 261.61814439999944,
                    "isi": 4,
                    "iti": 0.05,
                    "s1_filename": "stim\\im_c_01.jpg",
                    "s2_filename": "stim\\im_f_01.jpg",
                    "s1_category": "im",
                    "s2_category": "im",
                    "elapsed_since_previous": 7.990009899998768,
                    "timer": 249.99604109999927,
                    "tag": 257.00396609999916,
                    "block_start": 41.6404222000001,
                    "first_tag_trigger": 20.950967599999785
                }
            ]
        },
        {
            "block_number": 2,
            "block_type": "Alternation Block",
            "trials": [
                {
                    "trial_number": 1,
                    "global_trial_number": 31,
                    "trial_type": 1,
                    "condition": "coherent",
                    "reaction_time": 5000,
                    "button_press": 0,
                    "response_correct": false,
                    "is_target": "normal",
                    "target_accuracy": "correct",
                    "trial_trigger_time": 298.96392749999904,
                    "s1_onset": 299.2960039999998,
                    "s2_onset": 304.07724400000006,
                    "trial_trigger_time_cor": 278.01295989999926,
                    "s1_onset_cor": 278.3450364,
                    "s2_onset_cor": 283.1262764000003,
                    "isi": 4.5,
                    "iti": 0.05,
                    "s1_filename": "stim\\hp_c_01.jpg",
                    "s2_filename": "stim\\hp_f_04.jpg",
                    "s1_category": "hp",
                    "s2_category": "hp",
                    "elapsed_since_previous": 21.0089938000001,
                    "timer": 271.0050348999994,
                    "tag": 278.01295989999926,
                    "block_start": 41.6404222000001,
                    "first_tag_trigger": 20.950967599999785
                },
                {
                    "trial_number": 2,
                    "global_trial_number": 32,
                    "trial_type": 4,
                    "condition": "neutral",
                    "reaction_time": 5000,
                    "button_press": 0,
                    "response_correct": false,
                    "is_target": "normal",
                    "target_accuracy": "correct",
                    "trial_trigger_time": 308.9609227000001,
                    "s1_onset": 309.1917792999993,
                    "s2_onset": 314.2232920999995,
                    "trial_trigger_time_cor": 288.0099551000003,
                    "s1_onset_cor": 288.24081169999954,
                    "s2_onset_cor": 293.27232449999974,
                    "isi": 4.75,
                    "iti": 0.05,
                    "s1_filename": "stim\\mock3_c_03.jpg",
                    "s2_filename": "stim\\mock1_f_04.jpg",
                    "s1_category": "mock3",
                    "s2_category": "mock1",
                    "elapsed_since_previous": 9.996995200001038,
                    "timer": 281.0020301000004,
                    "tag": 288.0099551000003,
                    "block_start": 41.6404222000001,
                    "first_tag_trigger": 20.950967599999785
                },
                {
                    "trial_number": 3,
                    "global_trial_number": 33,
                    "trial_type": 4,
                    "condition": "target",
                    "reaction_time": 5000,
                    "button_press": 0,
                    "response_correct": false,
                    "is_target": "target",
                    "target_accuracy": "missed",
                    "trial_trigger_time": 317.9569259,
                    "s1_onset": 318.1717707000007,
                    "s2_onset": 323.20300660000066,
                    "trial_trigger_time_cor": 297.0059583000002,
                    "s1_onset_cor": 297.2208031000009,
                    "s2_onset_cor": 302.2520390000009,
                    "isi": 4.75,
                    "iti": 0.05,
                    "s1_filename": "stim\\mock4_c_02.jpg",
                    "s2_filename": "stim\\mock2_f_02.jpg",
                    "s1_category": "mock4",
                    "s2_category": "mock2",
                    "elapsed_since_previous": 8.996003199999905,
                    "timer": 289.9980333000003,
                    "tag": 297.0059583000002,
                    "block_start": 41.6404222000001,
                    "first_tag_trigger": 20.950967599999785
                },
                {
                    "trial_number": 4,
                    "global_trial_number": 34,
                    "trial_type": 4,
                    "condition": "neutral",
                    "reaction_time": 5000,
                    "button_press": 0,
                    "response_correct": false,
                    "is_target": "normal",
                    "target_accuracy": "correct",
                    "trial_trigger_time": 326.96408599999995,
                    "s1_onset": 327.2180265999996,
                    "s2_onset": 331.4995020000006,
                    "trial_trigger_time_cor": 306.01311840000017,
                    "s1_onset_cor": 306.2670589999998,
                    "s2_onset_cor": 310.5485344000008,
                    "isi": 4,
                    "iti": 0.05,
                    "s1_filename": "stim\\mock2_c_01.jpg",
                    "s2_filename": "stim\\mock3_f_03.jpg",
                    "s1_category": "mock2",
                    "s2_category": "mock3",
                    "elapsed_since_previous": 9.007160099999965,
                    "timer": 299.0051934000003,
                    "tag": 306.01311840000017,
                    "block_start": 41.6404222000001,
                    "first_tag_trigger": 20.950967599999785
                },
                {
                    "trial_number": 5,
                    "global_trial_number": 35,
                    "trial_type": 1,
                    "condition": "coherent",
                    "reaction_time": 5000,
                    "button_press": 0,
                    "response_correct": false,
                    "is_target": "normal",
                    "target_accuracy": "correct",
                    "trial_trigger_time": 335.9640435000001,
                    "s1_onset": 336.2644175000005,
                    "s2_onset": 340.546070299999,
                    "trial_trigger_time_cor": 315.01307590000033,
                    "s1_onset_cor": 315.3134499000007,
                    "s2_onset_cor": 319.5951026999992,
                    "isi": 4,
                    "iti": 0.05,
                    "s1_filename": "stim\\am_c_03.jpg",
                    "s2_filename": "stim\\am_f_01.jpg",
                    "s1_category": "am",
                    "s2_category": "am",
                    "elapsed_since_previous": 8.999957500000164,
                    "timer": 308.00515090000044,
                    "tag": 315.01307590000033,
                    "block_start": 41.6404222000001,
                    "first_tag_trigger": 20.950967599999785
                },
                {
                    "trial_number": 6,
                    "global_trial_number": 36,
                    "trial_type": 4,
                    "condition": "neutral",
                    "reaction_time": 5000,
                    "button_press": 0,
                    "response_correct": false,
                    "is_target": "normal",
                    "target_accuracy": "correct",
                    "trial_trigger_time": 343.95392209999955,
                    "s1_onset": 344.161364399999,
                    "s2_onset": 348.4428788999994,
                    "trial_trigger_time_cor": 323.00295449999976,
                    "s1_onset_cor": 323.2103967999992,
                    "s2_onset_cor": 327.49191129999963,
                    "isi": 4,
                    "iti": 0.05,
                    "s1_filename": "stim\\mock1_c_01.jpg",
                    "s2_filename": "stim\\mock2_f_03.jpg",
                    "s1_category": "mock1",
                    "s2_category": "mock2",
                    "elapsed_since_previous": 7.989878599999429,
                    "timer": 315.9950294999999,
                    "tag": 323.00295449999976,
                    "block_start": 41.6404222000001,
                    "first_tag_trigger": 20.950967599999785
                },
                {
                    "trial_number": 7,
                    "global_trial_number": 37,
                    "trial_type": 1,
                    "condition": "target",
                    "reaction_time": 5000,
                    "button_press": 0,
                    "response_correct": false,
                    "is_target": "target",
                    "target_accuracy": "missed",
                    "trial_trigger_time": 350.9619218000007,
                    "s1_onset": 351.17488950000006,
                    "s2_onset": 356.1898062,
                    "trial_trigger_time_cor": 330.0109542000009,
                    "s1_onset_cor": 330.2239219000003,
                    "s2_onset_cor": 335.23883860000024,
                    "isi": 4.75,
                    "iti": 0.05,
                    "s1_filename": "stim\\poc_c_05.jpg",
                    "s2_filename": "stim\\poc_f_01.jpg",
                    "s1_category": "poc",
                    "s2_category": "poc",
                    "elapsed_since_previous": 7.0079997000011645,
                    "timer": 323.00302920000104,
                    "tag": 330.0109542000009,
                    "block_start": 41.6404222000001,
                    "first_tag_trigger": 20.950967599999785
                },
                {
                    "trial_number": 8,
                    "global_trial_number": 38,
                    "trial_type": 3,
                    "condition": "incoherent_mock",
                    "reaction_time": 5000,
                    "button_press": 0,
                    "response_correct": false,
                    "is_target": "normal",
                    "target_accuracy": "correct",
                    "trial_trigger_time": 359.96592939999937,
                    "s1_onset": 360.2881890999997,
                    "s2_onset": 365.30276839999897,
                    "trial_trigger_time_cor": 339.0149617999996,
                    "s1_onset_cor": 339.33722149999994,
                    "s2_onset_cor": 344.3518007999992,
                    "isi": 4.75,
                    "iti": 0.05,
                    "s1_filename": "stim\\im_c_03.jpg",
                    "s2_filename": "stim\\mock3_f_02.jpg",
                    "s1_category": "im",
                    "s2_category": "mock3",
                    "elapsed_since_previous": 9.004007599998658,
                    "timer": 332.0070367999997,
                    "tag": 339.0149617999996,
                    "block_start": 41.6404222000001,
                    "first_tag_trigger": 20.950967599999785
                },
                {
                    "trial_number": 9,
                    "global_trial_number": 39,
                    "trial_type": 1,
                    "condition": "coherent",
                    "reaction_time": 5000,
                    "button_press": 0,
                    "response_correct": false,
                    "is_target": "normal",
                    "target_accuracy": "correct",
                    "trial_trigger_time": 367.96192639999936,
                    "s1_onset": 368.2350697999991,
                    "s2_onset": 373.26632640000025,
                    "trial_trigger_time_cor": 347.01095879999957,
                    "s1_onset_cor": 347.2841021999993,
                    "s2_onset_cor": 352.31535880000047,
                    "isi": 4.75,
                    "iti": 0.05,
                    "s1_filename": "stim\\poc_c_03.jpg",
                    "s2_filename": "stim\\poc_f_02.jpg",
                    "s1_category": "poc",
                    "s2_category": "poc",
                    "elapsed_since_previous": 7.9959969999999885,
                    "timer": 340.0030337999997,
                    "tag": 347.01095879999957,
                    "block_start": 41.6404222000001,
                    "first_tag_trigger": 20.950967599999785
                },
                {
                    "trial_number": 10,
                    "global_trial_number": 40,
                    "trial_type": 2,
                    "condition": "incoherent_real",
                    "reaction_time": 5000,
                    "button_press": 0,
                    "response_correct": false,
                    "is_target": "normal",
                    "target_accuracy": "correct",
                    "trial_trigger_time": 376.96186560000024,
                    "s1_onset": 377.2314401000003,
                    "s2_onset": 381.76282639999954,
                    "trial_trigger_time_cor": 356.01089800000045,
                    "s1_onset_cor": 356.28047250000054,
                    "s2_onset_cor": 360.81185879999975,
                    "isi": 4.25,
                    "iti": 0.05,
                    "s1_filename": "stim\\am_c_02.jpg",
                    "s2_filename": "stim\\mock4_f_04.jpg",
                    "s1_category": "am",
                    "s2_category": "mock4",
                    "elapsed_since_previous": 8.999939200000881,
                    "timer": 349.00297300000057,
                    "tag": 356.01089800000045,
                    "block_start": 41.6404222000001,
                    "first_tag_trigger": 20.950967599999785
                },
                {
                    "trial_number": 11,
                    "global_trial_number": 41,
                    "trial_type": 2,
                    "condition": "incoherent_real",
                    "reaction_time": 5000,
                    "button_press": 0,
                    "response_correct": false,
                    "is_target": "normal",
                    "target_accuracy": "correct",
                    "trial_trigger_time": 385.95988190000025,
                    "s1_onset": 386.19450920000054,
                    "s2_onset": 390.72598599999947,
                    "trial_trigger_time_cor": 365.00891430000047,
                    "s1_onset_cor": 365.24354160000075,
                    "s2_onset_cor": 369.7750183999997,
                    "isi": 4.25,
                    "iti": 0.05,
                    "s1_filename": "stim\\im_c_02.jpg",
                    "s2_filename": "stim\\mock1_f_02.jpg",
                    "s1_category": "im",
                    "s2_category": "mock1",
                    "elapsed_since_previous": 8.998016300000018,
                    "timer": 358.0009893000006,
                    "tag": 365.00891430000047,
                    "block_start": 41.6404222000001,
                    "first_tag_trigger": 20.950967599999785
                },
                {
                    "trial_number": 12,
                    "global_trial_number": 42,
                    "trial_type": 4,
                    "condition": "target",
                    "reaction_time": 5000,
                    "button_press": 0,
                    "response_correct": false,
                    "is_target": "target",
                    "target_accuracy": "missed",
                    "trial_trigger_time": 394.9618283,
                    "s1_onset": 395.1910000000007,
                    "s2_onset": 399.97234539999954,
                    "trial_trigger_time_cor": 374.0108607000002,
                    "s1_onset_cor": 374.2400324000009,
                    "s2_onset_cor": 379.02137779999975,
                    "isi": 4.5,
                    "iti": 0.05,
                    "s1_filename": "stim\\mock4_c_04.jpg",
                    "s2_filename": "stim\\mock4_f_04.jpg",
                    "s1_category": "mock4",
                    "s2_category": "mock4",
                    "elapsed_since_previous": 9.001946399999724,
                    "timer": 367.0029357000003,
                    "tag": 374.0108607000002,
                    "block_start": 41.6404222000001,
                    "first_tag_trigger": 20.950967599999785
                },
                {
                    "trial_number": 13,
                    "global_trial_number": 43,
                    "trial_type": 1,
                    "condition": "coherent",
                    "reaction_time": 5000,
                    "button_press": 0,
                    "response_correct": false,
                    "is_target": "normal",
                    "target_accuracy": "correct",
                    "trial_trigger_time": 402.9548672000001,
                    "s1_onset": 403.28755060000003,
                    "s2_onset": 408.052451399999,
                    "trial_trigger_time_cor": 382.0038996000003,
                    "s1_onset_cor": 382.33658300000025,
                    "s2_onset_cor": 387.1014837999992,
                    "isi": 4.5,
                    "iti": 0.05,
                    "s1_filename": "stim\\hp_c_03.jpg",
                    "s2_filename": "stim\\hp_f_02.jpg",
                    "s1_category": "hp",
                    "s2_category": "hp",
                    "elapsed_since_previous": 7.993038900000101,
                    "timer": 374.9959746000004,
                    "tag": 382.0038996000003,
                    "block_start": 41.6404222000001,
                    "first_tag_trigger": 20.950967599999785
                },
                {
                    "trial_number": 14,
                    "global_trial_number": 44,
                    "trial_type": 1,
                    "condition": "coherent",
                    "reaction_time": 5000,
                    "button_press": 0,
                    "response_correct": false,
                    "is_target": "normal",
                    "target_accuracy": "correct",
                    "trial_trigger_time": 412.9629358000002,
                    "s1_onset": 413.23376689999895,
                    "s2_onset": 418.51507669999955,
                    "trial_trigger_time_cor": 392.0119682000004,
                    "s1_onset_cor": 392.28279929999917,
                    "s2_onset_cor": 397.56410909999977,
                    "isi": 5,
                    "iti": 0.05,
                    "s1_filename": "stim\\poc_c_01.jpg",
                    "s2_filename": "stim\\poc_f_05.jpg",
                    "s1_category": "poc",
                    "s2_category": "poc",
                    "elapsed_since_previous": 10.008068600000115,
                    "timer": 385.0040432000005,
                    "tag": 392.0119682000004,
                    "block_start": 41.6404222000001,
                    "first_tag_trigger": 20.950967599999785
                },
                {
                    "trial_number": 15,
                    "global_trial_number": 45,
                    "trial_type": 1,
                    "condition": "coherent",
                    "reaction_time": 5000,
                    "button_press": 0,
                    "response_correct": false,
                    "is_target": "normal",
                    "target_accuracy": "correct",
                    "trial_trigger_time": 422.9559394000007,
                    "s1_onset": 423.1797678999992,
                    "s2_onset": 428.4607827,
                    "trial_trigger_time_cor": 402.00497180000093,
                    "s1_onset_cor": 402.2288002999994,
                    "s2_onset_cor": 407.5098151000002,
                    "isi": 5,
                    "iti": 0.05,
                    "s1_filename": "stim\\im_c_04.jpg",
                    "s2_filename": "stim\\im_f_05.jpg",
                    "s1_category": "im",
                    "s2_category": "im",
                    "elapsed_since_previous": 9.99300360000052,
                    "timer": 394.99704680000104,
                    "tag": 402.00497180000093,
                    "block_start": 41.6404222000001,
                    "first_tag_trigger": 20.950967599999785
                },
                {
                    "trial_number": 16,
                    "global_trial_number": 46,
                    "trial_type": 3,
                    "condition": "incoherent_mock",
                    "reaction_time": 5000,
                    "button_press": 0,
                    "response_correct": false,
                    "is_target": "normal",
                    "target_accuracy": "correct",
                    "trial_trigger_time": 431.9648890999997,
                    "s1_onset": 432.2093406999993,
                    "s2_onset": 436.74091899999985,
                    "trial_trigger_time_cor": 411.0139214999999,
                    "s1_onset_cor": 411.2583730999995,
                    "s2_onset_cor": 415.78995140000006,
                    "isi": 4.25,
                    "iti": 0.05,
                    "s1_filename": "stim\\am_c_04.jpg",
                    "s2_filename": "stim\\mock2_f_01.jpg",
                    "s1_category": "am",
                    "s2_category": "mock2",
                    "elapsed_since_previous": 9.008949699998993,
                    "timer": 404.00599650000004,
                    "tag": 411.0139214999999,
                    "block_start": 41.6404222000001,
                    "first_tag_trigger": 20.950967599999785
                },
                {
                    "trial_number": 17,
                    "global_trial_number": 47,
                    "trial_type": 3,
                    "condition": "incoherent_mock",
                    "reaction_time": 5000,
                    "button_press": 0,
                    "response_correct": false,
                    "is_target": "normal",
                    "target_accuracy": "correct",
                    "trial_trigger_time": 439.9659195999993,
                    "s1_onset": 440.1727718000002,
                    "s2_onset": 444.4545956000002,
                    "trial_trigger_time_cor": 419.01495199999954,
                    "s1_onset_cor": 419.2218042000004,
                    "s2_onset_cor": 423.5036280000004,
                    "isi": 4,
                    "iti": 0.05,
                    "s1_filename": "stim\\hp_c_02.jpg",
                    "s2_filename": "stim\\mock1_f_02.jpg",
                    "s1_category": "hp",
                    "s2_category": "mock1",
                    "elapsed_since_previous": 8.001030499999615,
                    "timer": 412.00702699999965,
                    "tag": 419.01495199999954,
                    "block_start": 41.6404222000001,
                    "first_tag_trigger": 20.950967599999785
                },
                {
                    "trial_number": 18,
                    "global_trial_number": 48,
                    "trial_type": 2,
                    "condition": "incoherent_real",
                    "reaction_time": 5000,
                    "button_press": 0,
                    "response_correct": false,
                    "is_target": "normal",
                    "target_accuracy": "correct",
                    "trial_trigger_time": 446.95691930000066,
                    "s1_onset": 447.20345629999974,
                    "s2_onset": 452.4847553999989,
                    "trial_trigger_time_cor": 426.0059517000009,
                    "s1_onset_cor": 426.25248869999996,
                    "s2_onset_cor": 431.5337877999991,
                    "isi": 5,
                    "iti": 0.05,
                    "s1_filename": "stim\\poc_c_03.jpg",
                    "s2_filename": "stim\\mock1_f_04.jpg",
                    "s1_category": "poc",
                    "s2_category": "mock1",
                    "elapsed_since_previous": 6.990999700001339,
                    "timer": 418.998026700001,
                    "tag": 426.0059517000009,
                    "block_start": 41.6404222000001,
                    "first_tag_trigger": 20.950967599999785
                },
                {
                    "trial_number": 19,
                    "global_trial_number": 49,
                    "trial_type": 1,
                    "condition": "coherent",
                    "reaction_time": 5000,
                    "button_press": 0,
                    "response_correct": false,
                    "is_target": "normal",
                    "target_accuracy": "correct",
                    "trial_trigger_time": 455.9658182000003,
                    "s1_onset": 456.1831065000006,
                    "s2_onset": 460.4649162000005,
                    "trial_trigger_time_cor": 435.0148506000005,
                    "s1_onset_cor": 435.2321389000008,
                    "s2_onset_cor": 439.51394860000073,
                    "isi": 4,
                    "iti": 0.05,
                    "s1_filename": "stim\\hp_c_05.jpg",
                    "s2_filename": "stim\\hp_f_04.jpg",
                    "s1_category": "hp",
                    "s2_category": "hp",
                    "elapsed_since_previous": 9.008898899999622,
                    "timer": 428.0069256000006,
                    "tag": 435.0148506000005,
                    "block_start": 41.6404222000001,
                    "first_tag_trigger": 20.950967599999785
                },
                {
                    "trial_number": 20,
                    "global_trial_number": 50,
                    "trial_type": 2,
                    "condition": "incoherent_real",
                    "reaction_time": 5000,
                    "button_press": 0,
                    "response_correct": false,
                    "is_target": "normal",
                    "target_accuracy": "correct",
                    "trial_trigger_time": 464.9638515000006,
                    "s1_onset": 465.28038190000007,
                    "s2_onset": 469.56127899999956,
                    "trial_trigger_time_cor": 444.0128839000008,
                    "s1_onset_cor": 444.3294143000003,
                    "s2_onset_cor": 448.6103113999998,
                    "isi": 4,
                    "iti": 0.05,
                    "s1_filename": "stim\\am_c_05.jpg",
                    "s2_filename": "stim\\mock4_f_01.jpg",
                    "s1_category": "am",
                    "s2_category": "mock4",
                    "elapsed_since_previous": 8.998033300000316,
                    "timer": 437.00495890000093,
                    "tag": 444.0128839000008,
                    "block_start": 41.6404222000001,
                    "first_tag_trigger": 20.950967599999785
                },
                {
                    "trial_number": 21,
                    "global_trial_number": 51,
                    "trial_type": 3,
                    "condition": "target",
                    "reaction_time": 5000,
                    "button_press": 0,
                    "response_correct": false,
                    "is_target": "target",
                    "target_accuracy": "missed",
                    "trial_trigger_time": 472.9638863,
                    "s1_onset": 473.22626169999967,
                    "s2_onset": 478.0078324999995,
                    "trial_trigger_time_cor": 452.0129187000002,
                    "s1_onset_cor": 452.2752940999999,
                    "s2_onset_cor": 457.0568648999997,
                    "isi": 4.5,
                    "iti": 0.05,
                    "s1_filename": "stim\\im_c_01.jpg",
                    "s2_filename": "stim\\am_f_03.jpg",
                    "s1_category": "im",
                    "s2_category": "am",
                    "elapsed_since_previous": 8.000034799999412,
                    "timer": 445.00499370000034,
                    "tag": 452.0129187000002,
                    "block_start": 41.6404222000001,
                    "first_tag_trigger": 20.950967599999785
                },
                {
                    "trial_number": 22,
                    "global_trial_number": 52,
                    "trial_type": 1,
                    "condition": "coherent",
                    "reaction_time": 5000,
                    "button_press": 0,
                    "response_correct": false,
                    "is_target": "normal",
                    "target_accuracy": "correct",
                    "trial_trigger_time": 481.95786659999976,
                    "s1_onset": 482.2726892999999,
                    "s2_onset": 486.55438929999946,
                    "trial_trigger_time_cor": 461.006899,
                    "s1_onset_cor": 461.3217217000001,
                    "s2_onset_cor": 465.60342169999967,
                    "isi": 4,
                    "iti": 0.05,
                    "s1_filename": "stim\\hp_c_03.jpg",
                    "s2_filename": "stim\\hp_f_05.jpg",
                    "s1_category": "hp",
                    "s2_category": "hp",
                    "elapsed_since_previous": 8.993980299999748,
                    "timer": 453.9989740000001,
                    "tag": 461.006899,
                    "block_start": 41.6404222000001,
                    "first_tag_trigger": 20.950967599999785
                },
                {
                    "trial_number": 23,
                    "global_trial_number": 53,
                    "trial_type": 2,
                    "condition": "incoherent_real",
                    "reaction_time": 5000,
                    "button_press": 0,
                    "response_correct": false,
                    "is_target": "normal",
                    "target_accuracy": "correct",
                    "trial_trigger_time": 488.95992300000034,
                    "s1_onset": 489.2701111999995,
                    "s2_onset": 493.8015718000006,
                    "trial_trigger_time_cor": 468.00895540000056,
                    "s1_onset_cor": 468.31914359999973,
                    "s2_onset_cor": 472.8506042000008,
                    "isi": 4.25,
                    "iti": 0.05,
                    "s1_filename": "stim\\am_c_02.jpg",
                    "s2_filename": "stim\\mock1_f_05.jpg",
                    "s1_category": "am",
                    "s2_category": "mock1",
                    "elapsed_since_previous": 7.002056400000583,
                    "timer": 461.0010304000007,
                    "tag": 468.00895540000056,
                    "block_start": 41.6404222000001,
                    "first_tag_trigger": 20.950967599999785
                },
                {
                    "trial_number": 24,
                    "global_trial_number": 54,
                    "trial_type": 1,
                    "condition": "target",
                    "reaction_time": 5000,
                    "button_press": 0,
                    "response_correct": false,
                    "is_target": "target",
                    "target_accuracy": "missed",
                    "trial_trigger_time": 496.9579236999998,
                    "s1_onset": 497.20023609999953,
                    "s2_onset": 502.4814944999998,
                    "trial_trigger_time_cor": 476.0069561,
                    "s1_onset_cor": 476.24926849999974,
                    "s2_onset_cor": 481.53052690000004,
                    "isi": 5,
                    "iti": 0.05,
                    "s1_filename": "stim\\hp_c_04.jpg",
                    "s2_filename": "stim\\hp_f_03.jpg",
                    "s1_category": "hp",
                    "s2_category": "hp",
                    "elapsed_since_previous": 7.998000699999466,
                    "timer": 468.99903110000014,
                    "tag": 476.0069561,
                    "block_start": 41.6404222000001,
                    "first_tag_trigger": 20.950967599999785
                },
                {
                    "trial_number": 25,
                    "global_trial_number": 55,
                    "trial_type": 3,
                    "condition": "incoherent_mock",
                    "reaction_time": 5000,
                    "button_press": 0,
                    "response_correct": false,
                    "is_target": "normal",
                    "target_accuracy": "correct",
                    "trial_trigger_time": 504.96592109999983,
                    "s1_onset": 505.29690049999954,
                    "s2_onset": 510.0782565999998,
                    "trial_trigger_time_cor": 484.01495350000005,
                    "s1_onset_cor": 484.34593289999975,
                    "s2_onset_cor": 489.127289,
                    "isi": 4.5,
                    "iti": 0.05,
                    "s1_filename": "stim\\poc_c_04.jpg",
                    "s2_filename": "stim\\mock2_f_04.jpg",
                    "s1_category": "poc",
                    "s2_category": "mock2",
                    "elapsed_since_previous": 8.007997400000022,
                    "timer": 477.00702850000016,
                    "tag": 484.01495350000005,
                    "block_start": 41.6404222000001,
                    "first_tag_trigger": 20.950967599999785
                },
                {
                    "trial_number": 26,
                    "global_trial_number": 56,
                    "trial_type": 1,
                    "condition": "target",
                    "reaction_time": 5000,
                    "button_press": 0,
                    "response_correct": false,
                    "is_target": "target",
                    "target_accuracy": "missed",
                    "trial_trigger_time": 513.9648125999993,
                    "s1_onset": 514.3099734999996,
                    "s2_onset": 519.3412831999995,
                    "trial_trigger_time_cor": 493.0138449999995,
                    "s1_onset_cor": 493.35900589999983,
                    "s2_onset_cor": 498.39031559999967,
                    "isi": 4.75,
                    "iti": 0.05,
                    "s1_filename": "stim\\im_c_03.jpg",
                    "s2_filename": "stim\\im_f_03.jpg",
                    "s1_category": "im",
                    "s2_category": "im",
                    "elapsed_since_previous": 8.998891499999445,
                    "timer": 486.0059199999996,
                    "tag": 493.0138449999995,
                    "block_start": 41.6404222000001,
                    "first_tag_trigger": 20.950967599999785
                },
                {
                    "trial_number": 27,
                    "global_trial_number": 57,
                    "trial_type": 1,
                    "condition": "coherent",
                    "reaction_time": 5000,
                    "button_press": 0,
                    "response_correct": false,
                    "is_target": "normal",
                    "target_accuracy": "correct",
                    "trial_trigger_time": 523.965917399999,
                    "s1_onset": 524.2228094000002,
                    "s2_onset": 529.2539001000005,
                    "trial_trigger_time_cor": 503.01494979999916,
                    "s1_onset_cor": 503.2718418000004,
                    "s2_onset_cor": 508.3029325000007,
                    "isi": 4.75,
                    "iti": 0.05,
                    "s1_filename": "stim\\poc_c_01.jpg",
                    "s2_filename": "stim\\poc_f_04.jpg",
                    "s1_category": "poc",
                    "s2_category": "poc",
                    "elapsed_since_previous": 10.001104799999666,
                    "timer": 496.0070247999993,
                    "tag": 503.01494979999916,
                    "block_start": 41.6404222000001,
                    "first_tag_trigger": 20.950967599999785
                },
                {
                    "trial_number": 28,
                    "global_trial_number": 58,
                    "trial_type": 4,
                    "condition": "neutral",
                    "reaction_time": 5000,
                    "button_press": 0,
                    "response_correct": false,
                    "is_target": "normal",
                    "target_accuracy": "correct",
                    "trial_trigger_time": 533.9589207999998,
                    "s1_onset": 534.2021547999993,
                    "s2_onset": 538.4839551999994,
                    "trial_trigger_time_cor": 513.0079532,
                    "s1_onset_cor": 513.2511871999995,
                    "s2_onset_cor": 517.5329875999996,
                    "isi": 4,
                    "iti": 0.05,
                    "s1_filename": "stim\\mock2_c_04.jpg",
                    "s2_filename": "stim\\mock3_f_03.jpg",
                    "s1_category": "mock2",
                    "s2_category": "mock3",
                    "elapsed_since_previous": 9.993003400000816,
                    "timer": 506.0000282000001,
                    "tag": 513.0079532,
                    "block_start": 41.6404222000001,
                    "first_tag_trigger": 20.950967599999785
                },
                {
                    "trial_number": 29,
                    "global_trial_number": 59,
                    "trial_type": 1,
                    "condition": "coherent",
                    "reaction_time": 5000,
                    "button_press": 0,
                    "response_correct": false,
                    "is_target": "normal",
                    "target_accuracy": "correct",
                    "trial_trigger_time": 542.9569195000004,
                    "s1_onset": 543.1818437999991,
                    "s2_onset": 547.9632935999998,
                    "trial_trigger_time_cor": 522.0059519000006,
                    "s1_onset_cor": 522.2308761999993,
                    "s2_onset_cor": 527.012326,
                    "isi": 4.5,
                    "iti": 0.05,
                    "s1_filename": "stim\\im_c_04.jpg",
                    "s2_filename": "stim\\im_f_01.jpg",
                    "s1_category": "im",
                    "s2_category": "im",
                    "elapsed_since_previous": 8.997998700000608,
                    "timer": 514.9980269000007,
                    "tag": 522.0059519000006,
                    "block_start": 41.6404222000001,
                    "first_tag_trigger": 20.950967599999785
                },
                {
                    "trial_number": 30,
                    "global_trial_number": 60,
                    "trial_type": 4,
                    "condition": "neutral",
                    "reaction_time": 5000,
                    "button_press": 0,
                    "response_correct": false,
                    "is_target": "normal",
                    "target_accuracy": "correct",
                    "trial_trigger_time": 550.9669235000001,
                    "s1_onset": 551.2454166999996,
                    "s2_onset": 556.0269745999994,
                    "trial_trigger_time_cor": 530.0159559000003,
                    "s1_onset_cor": 530.2944490999998,
                    "s2_onset_cor": 535.0760069999997,
                    "isi": 4.5,
                    "iti": 0.05,
                    "s1_filename": "stim\\mock3_c_05.jpg",
                    "s2_filename": "stim\\mock2_f_03.jpg",
                    "s1_category": "mock3",
                    "s2_category": "mock2",
                    "elapsed_since_previous": 8.010003999999753,
                    "timer": 523.0080309000004,
                    "tag": 530.0159559000003,
                    "block_start": 41.6404222000001,
                    "first_tag_trigger": 20.950967599999785
                }
            ]
        }
    ]
}