participant_id,participant_name,run,block_number,trial_number,global_trial_number,trial_type,condition,reaction_time,trial_trigger_time,s1_onset,s2_onset,trial_trigger_time_cor,s1_onset_cor,s2_onset_cor,isi,iti,button_press,s1_filename,s2_filename,s1_category,s2_category,elapsed_since_previous,target_trial_counter,is_target,target_accuracy,timer,tag,block_start,first_tag_trigger
JF,,3,1,1,1,3,incoherent_mock,5000,21.02995649999866,21.2354207999997,26.51646979999896,6.014989600000263,6.220453900001303,11.50150290000056,5,0.05,0,stim\poc_c_05.jpg,stim\mock2_f_04.jpg,poc,mock2,0,,normal,correct,0.0,6.014989600000263,35.882664799999475,15.014966899998399
JF,,3,1,2,2,4,neutral,5000,29.022991099998762,29.248765399999684,33.78030499999841,14.008024200000364,14.233798500001285,18.765338100000008,4.25,0.05,0,stim\mock4_c_02.jpg,stim\mock2_f_02.jpg,mock4,mock2,7.993034600000101,,normal,correct,7.993034600000101,14.008024200000364,35.882664799999475,15.014966899998399
JF,,3,1,3,3,4,neutral,5000,37.02697079999962,37.27892469999824,42.5601276999987,22.01200390000122,22.263957799999844,27.545160800000303,5,0.05,0,stim\mock2_c_02.jpg,stim\hp_f_01.jpg,mock2,hp,8.003979700000855,,normal,correct,15.997014300000956,22.01200390000122,35.882664799999475,15.014966899998399
JF,,3,1,4,4,4,neutral,5000,47.02497279999989,47.35810019999917,52.139552199998434,32.01000590000149,32.34313330000077,37.124585300000035,4.5,0.05,0,stim\mock1_c_05.jpg,stim\im_f_05.jpg,mock1,im,9.99800200000027,,normal,correct,25.995016300001225,32.01000590000149,35.882664799999475,15.014966899998399
JF,,3,1,5,5,1,coherent,5000,56.02396849999968,56.23782739999842,60.51951459999873,41.009001600001284,41.222860500000024,45.50454770000033,4,0.05,0,stim\am_c_04.jpg,stim\am_f_05.jpg,am,am,8.998995699999796,,normal,correct,34.99401200000102,41.009001600001284,35.882664799999475,15.014966899998399
JF,,3,1,6,6,1,coherent,5000,65.0300172999996,65.2507947999984,69.78238559999954,50.0150504000012,50.235827900000004,54.767418700001144,4.25,0.05,0,stim\hp_c_02.jpg,stim\hp_f_02.jpg,hp,hp,9.006048799999917,,normal,correct,44.00006080000094,50.0150504000012,35.882664799999475,15.014966899998399
JF,,3,1,7,7,3,incoherent_mock,5000,72.02797399999872,72.29794109999966,77.57932229999824,57.01300710000032,57.28297420000126,62.56435539999984,5,0.05,0,stim\poc_c_04.jpg,stim\mock1_f_03.jpg,poc,mock1,6.997956699999122,,normal,correct,50.99801750000006,57.01300710000032,35.882664799999475,15.014966899998399
JF,,3,1,8,8,2,incoherent_real,5000,82.02079149999918,82.22729509999954,87.25875889999952,67.00582460000078,67.21232820000114,72.24379200000112,4.75,0.05,0,stim\am_c_01.jpg,stim\im_f_02.jpg,am,im,9.992817500000456,,normal,correct,60.990835000000516,67.00582460000078,35.882664799999475,15.014966899998399
JF,,3,1,9,9,1,coherent,5000,91.03195519999827,91.2902723999996,95.82190769999943,76.01698829999987,76.2753055000012,80.80694080000103,4.25,0.05,0,stim\poc_c_03.jpg,stim\poc_f_03.jpg,poc,poc,9.011163699999088,,normal,correct,70.0019986999996,76.01698829999987,35.882664799999475,15.014966899998399
JF,,3,1,10,10,1,target,5000,100.02795729999889,100.25333339999997,105.26800639999965,85.01299040000049,85.23836650000158,90.25303950000125,4.75,0.05,0,stim\im_c_03.jpg,stim\im_f_04.jpg,im,im,8.996002100000624,,target,missed,78.99800080000023,85.01299040000049,35.882664799999475,15.014966899998399
JF,,3,1,11,11,2,incoherent_real,5000,108.01896159999887,108.36664299999939,112.88173129999996,93.00399470000048,93.35167610000099,97.86676440000156,4.25,0.05,0,stim\hp_c_04.jpg,stim\am_f_03.jpg,hp,am,7.991004299999986,,normal,correct,86.98900510000021,93.00399470000048,35.882664799999475,15.014966899998399
JF,,3,1,12,12,4,neutral,5000,117.02996379999968,117.27993089999836,122.31121409999832,102.01499690000128,102.26496399999996,107.29624719999993,4.75,0.05,0,stim\mock3_c_02.jpg,stim\hp_f_04.jpg,mock3,hp,9.011002200000803,,normal,correct,96.00000730000102,102.01499690000128,35.882664799999475,15.014966899998399
JF,,3,1,13,13,3,target,5000,127.0189524999987,127.2425889999995,131.77416569999878,112.0039856000003,112.2276221000011,116.75919880000038,4.25,0.05,0,stim\am_c_03.jpg,stim\mock4_f_01.jpg,am,mock4,9.988988699999027,,target,missed,105.98899600000004,112.0039856000003,35.882664799999475,15.014966899998399
JF,,3,1,14,14,2,incoherent_real,5000,136.028924799999,136.32217409999976,141.58682399999998,121.0139579000006,121.30720720000136,126.57185710000158,5,0.05,0,stim\im_c_01.jpg,stim\am_f_02.jpg,im,am,9.0099723000003,,normal,correct,114.99896830000034,121.0139579000006,35.882664799999475,15.014966899998399
JF,,3,1,15,15,1,coherent,5000,145.0219621999986,145.31860349999988,150.59985999999844,130.0069953000002,130.30363660000148,135.58489310000004,5,0.05,0,stim\poc_c_02.jpg,stim\poc_f_04.jpg,poc,poc,8.993037399999594,,normal,correct,123.99200569999994,130.0069953000002,35.882664799999475,15.014966899998399
JF,,3,1,16,16,1,coherent,5000,154.02097959999992,154.31498249999822,159.34641509999892,139.00601270000152,139.30001559999982,144.33144820000052,4.75,0.05,0,stim\hp_c_05.jpg,stim\hp_f_05.jpg,hp,hp,8.999017400001321,,normal,correct,132.99102310000126,139.00601270000152,35.882664799999475,15.014966899998399
JF,,3,1,17,17,3,incoherent_mock,5000,162.01998129999993,162.29508539999915,167.5764814999984,147.00501440000153,147.28011850000075,152.5615146,5,0.05,0,stim\am_c_02.jpg,stim\mock3_f_01.jpg,am,mock3,7.999001700000008,,normal,correct,140.99002480000127,147.00501440000153,35.882664799999475,15.014966899998399
JF,,3,1,18,18,3,incoherent_mock,5000,171.0219505999994,171.30814809999902,176.33955979999882,156.006983700001,156.29318120000062,161.32459290000043,4.75,0.05,0,stim\im_c_02.jpg,stim\mock4_f_05.jpg,im,mock4,9.001969299999473,,normal,correct,149.99199410000074,156.006983700001,35.882664799999475,15.014966899998399
JF,,3,1,19,19,4,target,5000,181.01892979999866,181.22090839999873,186.00236389999918,166.00396290000026,166.20594150000034,170.98739700000078,4.5,0.05,0,stim\mock2_c_03.jpg,stim\mock1_f_04.jpg,mock2,mock1,9.99697919999926,,target,missed,159.9889733,166.00396290000026,35.882664799999475,15.014966899998399
JF,,3,1,20,20,1,coherent,5000,189.03092899999865,189.25112389999958,193.53264369999852,174.01596210000025,174.23615700000119,178.51767680000012,4,0.05,0,stim\poc_c_01.jpg,stim\poc_f_05.jpg,poc,poc,8.011999199999991,,normal,correct,168.0009725,174.01596210000025,35.882664799999475,15.014966899998399
JF,,3,1,21,21,2,incoherent_real,5000,196.03386699999828,196.24819229999957,200.77959889999875,181.01890009999988,181.23322540000117,185.76463200000035,4.25,0.05,0,stim\am_c_05.jpg,stim\poc_f_02.jpg,am,poc,7.002937999999631,,normal,correct,175.00391049999962,181.01890009999988,35.882664799999475,15.014966899998399
JF,,3,1,22,22,1,coherent,5000,203.01887819999865,203.22862429999986,208.50997229999848,188.00391130000025,188.21365740000147,193.49500540000008,5,0.05,0,stim\im_c_05.jpg,stim\im_f_01.jpg,im,im,6.985011200000372,,normal,correct,181.9889217,188.00391130000025,35.882664799999475,15.014966899998399
JF,,3,1,23,23,2,target,5000,213.0289004999995,213.27490379999836,217.80640799999856,198.0139336000011,198.25993689999996,202.79144110000016,4.25,0.05,0,stim\hp_c_03.jpg,stim\im_f_03.jpg,hp,im,10.010022300000855,,target,missed,191.99894400000085,198.0139336000011,35.882664799999475,15.014966899998399
JF,,3,1,24,24,2,incoherent_real,5000,221.03086189999885,221.23809309999888,225.51997529999971,206.01589500000046,206.22312620000048,210.50500840000132,4,0.05,0,stim\im_c_04.jpg,stim\hp_f_03.jpg,im,hp,8.001961399999345,,normal,correct,200.0009054000002,206.01589500000046,35.882664799999475,15.014966899998399
JF,,3,1,25,25,2,incoherent_real,5000,228.0239453999984,228.2519958999983,232.53372619999936,213.0089785,213.2370289999999,217.51875930000097,4,0.05,0,stim\hp_c_01.jpg,stim\am_f_04.jpg,hp,am,6.993083499999557,,normal,correct,206.99398889999975,213.0089785,35.882664799999475,15.014966899998399
JF,,3,1,26,26,3,incoherent_mock,5000,235.02098139999907,235.38243449999936,239.89743219999946,220.00601450000067,220.36746760000096,224.88246530000106,4.25,0.05,0,stim\poc_c_04.jpg,stim\mock3_f_04.jpg,poc,mock3,6.997036000000662,,normal,correct,213.9910249000004,220.00601450000067,35.882664799999475,15.014966899998399
JF,,3,1,27,27,4,neutral,5000,243.02886729999955,243.2628098999994,247.54438779999873,228.01390040000115,228.247843000001,232.52942090000033,4,0.05,0,stim\mock1_c_03.jpg,stim\mock1_f_05.jpg,mock1,mock1,8.007885900000474,,normal,correct,221.99891080000089,228.01390040000115,35.882664799999475,15.014966899998399
JF,,3,1,28,28,4,neutral,5000,251.0218473999994,251.30950159999884,255.59119969999847,236.006880500001,236.29453470000044,240.57623280000007,4,0.05,0,stim\mock4_c_04.jpg,stim\mock3_f_03.jpg,mock4,mock3,7.992980099999841,,normal,correct,229.99189090000073,236.006880500001,35.882664799999475,15.014966899998399
JF,,3,1,29,29,1,coherent,5000,258.02696209999885,258.3401626999985,263.37128629999825,243.01199520000046,243.32519580000007,248.35631939999985,4.75,0.05,0,stim\im_c_02.jpg,stim\im_f_02.jpg,im,im,7.005114699999467,,normal,correct,236.9970056000002,243.01199520000046,35.882664799999475,15.014966899998399
JF,,3,1,30,30,4,neutral,5000,268.01895499999955,268.3191868999984,273.33395159999964,253.00398810000115,253.30422,258.31898470000124,4.75,0.05,0,stim\mock3_c_04.jpg,stim\mock1_f_01.jpg,mock3,mock1,9.991992900000696,,normal,correct,246.9889985000009,253.00398810000115,35.882664799999475,15.014966899998399
JF,,3,2,1,31,3,incoherent_mock,5000,288.0248789999987,288.2778750999987,293.5427276999999,273.0099121000003,273.2629082000003,278.5277608000015,5,0.05,0,stim\poc_c_03.jpg,stim\mock2_f_01.jpg,poc,mock2,20.00592399999914,,normal,correct,266.99492250000003,273.0099121000003,35.882664799999475,15.014966899998399
JF,,3,2,2,32,2,incoherent_real,5000,296.02180059999955,296.3582357999985,301.13959649999924,281.00683370000115,281.3432689000001,286.12462960000084,4.5,0.05,0,stim\im_c_03.jpg,stim\am_f_01.jpg,im,am,7.99692160000086,,normal,correct,274.9918441000009,281.00683370000115,35.882664799999475,15.014966899998399
JF,,3,2,3,33,1,coherent,5000,305.02989779999916,305.2549136999987,309.7861972999999,290.01493090000076,290.2399468000003,294.7712304000015,4.25,0.05,0,stim\hp_c_05.jpg,stim\hp_f_03.jpg,hp,hp,9.008097199999611,,normal,correct,283.9999413000005,290.01493090000076,35.882664799999475,15.014966899998399
JF,,3,2,4,34,1,coherent,5000,312.0210169999991,312.26841969999987,317.0497815999988,297.0060501000007,297.25345280000147,302.0348147000004,4.5,0.05,0,stim\am_c_02.jpg,stim\am_f_03.jpg,am,am,6.991119199999957,,normal,correct,290.99106050000046,297.0060501000007,35.882664799999475,15.014966899998399
JF,,3,2,5,35,3,incoherent_mock,5000,320.02294989999973,320.28201499999886,325.04677139999876,305.00798300000133,305.26704810000047,310.03180450000036,4.5,0.05,0,stim\poc_c_02.jpg,stim\mock2_f_03.jpg,poc,mock2,8.001932900000611,,normal,correct,298.99299340000107,305.00798300000133,35.882664799999475,15.014966899998399
JF,,3,2,6,36,4,neutral,5000,330.0278617999993,330.344642,334.62630309999986,315.0128949000009,315.3296751000016,319.61133620000146,4,0.05,0,stim\mock4_c_03.jpg,stim\mock_f_03.jpg,mock4,mock,10.00491189999957,,normal,correct,308.99790530000064,315.0128949000009,35.882664799999475,15.014966899998399
JF,,3,2,7,37,1,target,5000,339.0199569999986,339.3241528999988,344.5888735999997,324.0049901000002,324.3091860000004,329.5739067000013,5,0.05,0,stim\im_c_01.jpg,stim\im_f_01.jpg,im,im,8.992095199999312,,target,missed,317.99000049999995,324.0049901000002,35.882664799999475,15.014966899998399
JF,,3,2,8,38,3,incoherent_mock,5000,349.0229135999998,349.2536494999986,353.7853078999997,334.0079467000014,334.2386826000002,338.7703410000013,4.25,0.05,0,stim\poc_c_05.jpg,stim\mock4_f_02.jpg,poc,mock4,10.002956600001198,,normal,correct,327.99295710000115,334.0079467000014,35.882664799999475,15.014966899998399
JF,,3,2,9,39,4,neutral,5000,357.02095219999865,357.2672993999986,362.04868779999924,342.00598530000025,342.2523325000002,347.03372090000084,4.5,0.05,0,stim\mock2_c_04.jpg,stim\mock4_f_04.jpg,mock2,mock4,7.998038599998836,,normal,correct,335.9909957,342.00598530000025,35.882664799999475,15.014966899998399
JF,,3,2,10,40,3,incoherent_mock,5000,366.0248313999982,366.2304209999984,370.5118696999998,351.0098644999998,351.2154541,355.4969028000014,4,0.05,0,stim\am_c_04.jpg,stim\mock1_f_02.jpg,am,mock1,9.003879199999574,,normal,correct,344.99487489999956,351.0098644999998,35.882664799999475,15.014966899998399
JF,,3,2,11,41,3,incoherent_mock,5000,373.01889729999857,373.2608008999996,377.5425447999987,358.0039304000002,358.2458340000012,362.5275779000003,4,0.05,0,stim\hp_c_01.jpg,stim\mock3_f_02.jpg,hp,mock3,6.994065900000351,,normal,correct,351.9889407999999,358.0039304000002,35.882664799999475,15.014966899998399
JF,,3,2,12,42,4,neutral,5000,382.02399799999876,382.29056479999963,386.8221799999992,367.00903110000036,367.27559790000123,371.8072131000008,4.25,0.05,0,stim\mock1_c_04.jpg,stim\mock2_f_05.jpg,mock1,mock2,9.005100700000185,,normal,correct,360.9940415000001,367.00903110000036,35.882664799999475,15.014966899998399
JF,,3,2,13,43,2,incoherent_real,5000,391.01796079999986,391.2369671999986,395.7685819999988,376.00299390000146,376.2220003000002,380.7536151000004,4.25,0.05,0,stim\im_c_05.jpg,stim\poc_f_01.jpg,im,poc,8.9939628000011,,normal,correct,369.9880043000012,376.00299390000146,35.882664799999475,15.014966899998399
JF,,3,2,14,44,4,target,5000,398.02893049999875,398.25073129999873,402.5325804999993,383.01396360000035,383.23576440000033,387.5176136000009,4,0.05,0,stim\mock2_c_01.jpg,stim\mock3_f_05.jpg,mock2,mock3,7.0109696999988955,,target,missed,376.9989740000001,383.01396360000035,35.882664799999475,15.014966899998399
JF,,3,2,15,45,3,incoherent_mock,5000,405.03191699999843,405.2480418999985,410.5292138999994,390.01695010000003,390.2330750000001,395.514247000001,5,0.05,0,stim\am_c_01.jpg,stim\poc_f_03.jpg,am,poc,7.002986499999679,,normal,correct,384.00196049999977,390.01695010000003,35.882664799999475,15.014966899998399
JF,,3,2,16,46,1,coherent,5000,414.0218014999991,414.2443226999985,418.7593702999984,399.00683460000073,399.2293558000001,403.7444034,4.25,0.05,0,stim\hp_c_02.jpg,stim\hp_f_02.jpg,hp,hp,8.989884500000699,,normal,correct,392.99184500000047,399.00683460000073,35.882664799999475,15.014966899998399
JF,,3,2,17,47,1,coherent,5000,423.0309158,423.32416829999966,427.85575339999923,408.0159489000016,408.30920140000126,412.84078650000083,4.25,0.05,0,stim\poc_c_01.jpg,stim\poc_f_02.jpg,poc,poc,9.009114300000874,,normal,correct,402.00095930000134,408.0159489000016,35.882664799999475,15.014966899998399
JF,,3,2,18,48,1,target,5000,430.02489779999996,430.23794649999945,435.51935179999964,415.00993090000156,415.22297960000105,420.50438490000124,5,0.05,0,stim\im_c_04.jpg,stim\im_f_05.jpg,im,im,6.99398199999996,,target,missed,408.9949413000013,415.00993090000156,35.882664799999475,15.014966899998399
JF,,3,2,19,49,1,coherent,5000,439.03085869999995,439.3176079999994,444.58241299999827,424.01589180000155,424.302641100001,429.56744609999987,5,0.05,0,stim\hp_c_03.jpg,stim\hp_f_01.jpg,hp,hp,9.005960899999991,,normal,correct,418.0009022000013,424.01589180000155,35.882664799999475,15.014966899998399
JF,,3,2,20,50,2,target,5000,447.0319321999996,447.26453369999945,452.0294501999997,432.0169653000012,432.24956680000105,437.0144833000013,4.5,0.05,0,stim\am_c_03.jpg,stim\poc_f_01.jpg,am,poc,8.00107349999962,,target,missed,426.0019757000009,432.0169653000012,35.882664799999475,15.014966899998399
JF,,3,2,21,51,3,incoherent_mock,5000,457.02687069999956,457.3273715999985,461.6088974999984,442.01190380000116,442.3124047000001,446.5939306,4,0.05,0,stim\hp_c_04.jpg,stim\mock1_f_03.jpg,hp,mock1,9.99493849999999,,normal,correct,435.9969142000009,442.01190380000116,35.882664799999475,15.014966899998399
JF,,3,2,22,52,2,incoherent_real,5000,464.0228324999989,464.3243664999991,468.5895273999995,449.0078656000005,449.3093996000007,453.5745605000011,4,0.05,0,stim\am_c_05.jpg,stim\hp_f_04.jpg,am,hp,6.99596179999935,,normal,correct,442.99287600000025,449.0078656000005,35.882664799999475,15.014966899998399
JF,,3,2,23,53,1,coherent,5000,471.0219528999987,471.2884114999997,476.5696586999984,456.0069860000003,456.2734446000013,461.5546918,5,0.05,0,stim\im_c_03.jpg,stim\im_f_03.jpg,im,im,6.999120399999811,,normal,correct,449.99199640000006,456.0069860000003,35.882664799999475,15.014966899998399
JF,,3,2,24,54,1,coherent,5000,480.0240787999992,480.28473869999834,484.56647489999887,465.0091119000008,465.26977179999994,469.55150800000047,4,0.05,0,stim\am_c_02.jpg,stim\am_f_04.jpg,am,am,9.002125900000465,,normal,correct,458.9941223000005,465.0091119000008,35.882664799999475,15.014966899998399
JF,,3,2,25,55,2,incoherent_real,5000,488.025929899999,488.23158129999865,493.01304789999995,473.01096300000063,473.21661440000025,477.99808100000155,4.5,0.05,0,stim\poc_c_01.jpg,stim\mock2_f_01.jpg,poc,mock2,8.00185109999984,,normal,correct,466.99597340000037,473.01096300000063,35.882664799999475,15.014966899998399
JF,,3,2,26,56,2,incoherent_real,5000,498.01895909999985,498.22775289999845,503.25912289999906,483.00399220000145,483.21278600000005,488.24415600000066,4.75,0.05,0,stim\hp_c_04.jpg,stim\poc_f_05.jpg,hp,poc,9.99302920000082,,normal,correct,476.9890026000012,483.00399220000145,35.882664799999475,15.014966899998399
JF,,3,2,27,57,3,incoherent_mock,5000,506.0258973,506.3410280999997,511.122571599999,491.0109304000016,491.3260612000013,496.1076047000006,4.5,0.05,0,stim\im_c_01.jpg,stim\mock2_f_02.jpg,im,mock2,8.00693820000015,,normal,correct,484.99594080000134,491.0109304000016,35.882664799999475,15.014966899998399
JF,,3,2,28,58,2,incoherent_real,5000,514.0189587999994,514.2879278,519.319268199999,499.003991900001,499.27296090000164,504.3043013000006,4.75,0.05,0,stim\hp_c_02.jpg,stim\am_f_02.jpg,hp,am,7.993061499999385,,normal,correct,492.9890023000007,499.003991900001,35.882664799999475,15.014966899998399
JF,,3,2,29,59,4,neutral,5000,523.0208457999997,523.2842561999987,528.0658751999999,508.00587890000133,508.2692893000003,513.0509083000015,4.5,0.05,0,stim\mock1_c_02.jpg,stim\mock1_f_01.jpg,mock1,mock1,9.001887000000352,,normal,correct,501.9908893000011,508.00587890000133,35.882664799999475,15.014966899998399
JF,,3,2,30,60,1,coherent,5000,532.0298742999985,532.3307466999995,536.8622149999992,517.0149074000001,517.3157798000011,521.8472481000008,4.25,0.05,0,stim\poc_c_02.jpg,stim\poc_f_04.jpg,poc,poc,9.009028499998749,,normal,correct,510.9999177999998,517.0149074000001,35.882664799999475,15.014966899998399
