{
    "participant": {
        "id": "JF",
        "name": ""
    },
    "run": "3",
    "debug_mode": false,
    "testing": false,
    "monitor": {
        "name": "MyMonitor",
        "resolution": [
            1920,
            1080
        ],
        "width_cm": 42.0,
        "distance_cm": 57.0
    },
    "experiment_start": null,
    "experiment_end": "2026-01-12T12:10:15.218159",
    "total_duration_sec": null,
    "blocks": [
        {
            "block_number": 1,
            "block_type": "Alternation Block",
            "trials": [
                {
                    "trial_number": 1,
                    "global_trial_number": 1,
                    "trial_type": 3,
                    "condition": "incoherent_mock",
                    "reaction_time": 5000,
                    "button_press": 0,
                    "response_correct": false,
                    "is_target": "normal",
                    "target_accuracy": "correct",
                    "trial_trigger_time": 21.02995649999866,
                    "s1_onset": 21.2354207999997,
                    "s2_onset": 26.51646979999896,
                    "trial_trigger_time_cor": 6.014989600000263,
                    "s1_onset_cor": 6.220453900001303,
                    "s2_onset_cor": 11.50150290000056,
                    "isi": 5,
                    "iti": 0.05,
                    "s1_filename": "stim\\poc_c_05.jpg",
                    "s2_filename": "stim\\mock2_f_04.jpg",
                    "s1_category": "poc",
                    "s2_category": "mock2",
                    "elapsed_since_previous": 0,
                    "timer": 0.0,
                    "tag": 6.014989600000263,
                    "block_start": 35.882664799999475,
                    "first_tag_trigger": 15.014966899998399
                },
                {
                    "trial_number": 2,
                    "global_trial_number": 2,
                    "trial_type": 4,
                    "condition": "neutral",
                    "reaction_time": 5000,
                    "button_press": 0,
                    "response_correct": false,
                    "is_target": "normal",
                    "target_accuracy": "correct",
                    "trial_trigger_time": 29.022991099998762,
                    "s1_onset": 29.248765399999684,
                    "s2_onset": 33.78030499999841,
                    "trial_trigger_time_cor": 14.008024200000364,
                    "s1_onset_cor": 14.233798500001285,
                    "s2_onset_cor": 18.765338100000008,
                    "isi": 4.25,
                    "iti": 0.05,
                    "s1_filename": "stim\\mock4_c_02.jpg",
                    "s2_filename": "stim\\mock2_f_02.jpg",
                    "s1_category": "mock4",
                    "s2_category": "mock2",
                    "elapsed_since_previous": 7.993034600000101,
                    "timer": 7.993034600000101,
                    "tag": 14.008024200000364,
                    "block_start": 35.882664799999475,
                    "first_tag_trigger": 15.014966899998399
                },
                {
                    "trial_number": 3,
                    "global_trial_number": 3,
                    "trial_type": 4,
                    "condition": "neutral",
                    "reaction_time": 5000,
                    "button_press": 0,
                    "response_correct": false,
                    "is_target": "normal",
                    "target_accuracy": "correct",
                    "trial_trigger_time": 37.02697079999962,
                    "s1_onset": 37.27892469999824,
                    "s2_onset": 42.5601276999987,
                    "trial_trigger_time_cor": 22.01200390000122,
                    "s1_onset_cor": 22.263957799999844,
                    "s2_onset_cor": 27.545160800000303,
                    "isi": 5,
                    "iti": 0.05,
                    "s1_filename": "stim\\mock2_c_02.jpg",
                    "s2_filename": "stim\\hp_f_01.jpg",
                    "s1_category": "mock2",
                    "s2_category": "hp",
                    "elapsed_since_previous": 8.003979700000855,
                    "timer": 15.997014300000956,
                    "tag": 22.01200390000122,
                    "block_start": 35.882664799999475,
                    "first_tag_trigger": 15.014966899998399
                },
                {
                    "trial_number": 4,
                    "global_trial_number": 4,
                    "trial_type": 4,
                    "condition": "neutral",
                    "reaction_time": 5000,
                    "button_press": 0,
                    "response_correct": false,
                    "is_target": "normal",
                    "target_accuracy": "correct",
                    "trial_trigger_time": 47.02497279999989,
                    "s1_onset": 47.35810019999917,
                    "s2_onset": 52.139552199998434,
                    "trial_trigger_time_cor": 32.01000590000149,
                    "s1_onset_cor": 32.34313330000077,
                    "s2_onset_cor": 37.124585300000035,
                    "isi": 4.5,
                    "iti": 0.05,
                    "s1_filename": "stim\\mock1_c_05.jpg",
                    "s2_filename": "stim\\im_f_05.jpg",
                    "s1_category": "mock1",
                    "s2_category": "im",
                    "elapsed_since_previous": 9.99800200000027,
                    "timer": 25.995016300001225,
                    "tag": 32.01000590000149,
                    "block_start": 35.882664799999475,
                    "first_tag_trigger": 15.014966899998399
                },
                {
                    "trial_number": 5,
                    "global_trial_number": 5,
                    "trial_type": 1,
                    "condition": "coherent",
                    "reaction_time": 5000,
                    "button_press": 0,
                    "response_correct": false,
                    "is_target": "normal",
                    "target_accuracy": "correct",
                    "trial_trigger_time": 56.02396849999968,
                    "s1_onset": 56.23782739999842,
                    "s2_onset": 60.51951459999873,
                    "trial_trigger_time_cor": 41.009001600001284,
                    "s1_onset_cor": 41.222860500000024,
                    "s2_onset_cor": 45.50454770000033,
                    "isi": 4,
                    "iti": 0.05,
                    "s1_filename": "stim\\am_c_04.jpg",
                    "s2_filename": "stim\\am_f_05.jpg",
                    "s1_category": "am",
                    "s2_category": "am",
                    "elapsed_since_previous": 8.998995699999796,
                    "timer": 34.99401200000102,
                    "tag": 41.009001600001284,
                    "block_start": 35.882664799999475,
                    "first_tag_trigger": 15.014966899998399
                },
                {
                    "trial_number": 6,
                    "global_trial_number": 6,
                    "trial_type": 1,
                    "condition": "coherent",
                    "reaction_time": 5000,
                    "button_press": 0,
                    "response_correct": false,
                    "is_target": "normal",
                    "target_accuracy": "correct",
                    "trial_trigger_time": 65.0300172999996,
                    "s1_onset": 65.2507947999984,
                    "s2_onset": 69.78238559999954,
                    "trial_trigger_time_cor": 50.0150504000012,
                    "s1_onset_cor": 50.235827900000004,
                    "s2_onset_cor": 54.767418700001144,
                    "isi": 4.25,
                    "iti": 0.05,
                    "s1_filename": "stim\\hp_c_02.jpg",
                    "s2_filename": "stim\\hp_f_02.jpg",
                    "s1_category": "hp",
                    "s2_category": "hp",
                    "elapsed_since_previous": 9.006048799999917,
                    "timer": 44.00006080000094,
                    "tag": 50.0150504000012,
                    "block_start": 35.882664799999475,
                    "first_tag_trigger": 15.014966899998399
                },
                {
                    "trial_number": 7,
                    "global_trial_number": 7,
                    "trial_type": 3,
                    "condition": "incoherent_mock",
                    "reaction_time": 5000,
                    "button_press": 0,
                    "response_correct": false,
                    "is_target": "normal",
                    "target_accuracy": "correct",
                    "trial_trigger_time": 72.02797399999872,
                    "s1_onset": 72.29794109999966,
                    "s2_onset": 77.57932229999824,
                    "trial_trigger_time_cor": 57.01300710000032,
                    "s1_onset_cor": 57.28297420000126,
                    "s2_onset_cor": 62.56435539999984,
                    "isi": 5,
                    "iti": 0.05,
                    "s1_filename": "stim\\poc_c_04.jpg",
                    "s2_filename": "stim\\mock1_f_03.jpg",
                    "s1_category": "poc",
                    "s2_category": "mock1",
                    "elapsed_since_previous": 6.997956699999122,
                    "timer": 50.99801750000006,
                    "tag": 57.01300710000032,
                    "block_start": 35.882664799999475,
                    "first_tag_trigger": 15.014966899998399
                },
                {
                    "trial_number": 8,
                    "global_trial_number": 8,
                    "trial_type": 2,
                    "condition": "incoherent_real",
                    "reaction_time": 5000,
                    "button_press": 0,
                    "response_correct": false,
                    "is_target": "normal",
                    "target_accuracy": "correct",
                    "trial_trigger_time": 82.02079149999918,
                    "s1_onset": 82.22729509999954,
                    "s2_onset": 87.25875889999952,
                    "trial_trigger_time_cor": 67.00582460000078,
                    "s1_onset_cor": 67.21232820000114,
                    "s2_onset_cor": 72.24379200000112,
                    "isi": 4.75,
                    "iti": 0.05,
                    "s1_filename": "stim\\am_c_01.jpg",
                    "s2_filename": "stim\\im_f_02.jpg",
                    "s1_category": "am",
                    "s2_category": "im",
                    "elapsed_since_previous": 9.992817500000456,
                    "timer": 60.990835000000516,
                    "tag": 67.00582460000078,
                    "block_start": 35.882664799999475,
                    "first_tag_trigger": 15.014966899998399
                },
                {
                    "trial_number": 9,
                    "global_trial_number": 9,
                    "trial_type": 1,
                    "condition": "coherent",
                    "reaction_time": 5000,
                    "button_press": 0,
                    "response_correct": false,
                    "is_target": "normal",
                    "target_accuracy": "correct",
                    "trial_trigger_time": 91.03195519999827,
                    "s1_onset": 91.2902723999996,
                    "s2_onset": 95.82190769999943,
                    "trial_trigger_time_cor": 76.01698829999987,
                    "s1_onset_cor": 76.2753055000012,
                    "s2_onset_cor": 80.80694080000103,
                    "isi": 4.25,
                    "iti": 0.05,
                    "s1_filename": "stim\\poc_c_03.jpg",
                    "s2_filename": "stim\\poc_f_03.jpg",
                    "s1_category": "poc",
                    "s2_category": "poc",
                    "elapsed_since_previous": 9.011163699999088,
                    "timer": 70.0019986999996,
                    "tag": 76.01698829999987,
                    "block_start": 35.882664799999475,
                    "first_tag_trigger": 15.014966899998399
                },
                {
                    "trial_number": 10,
                    "global_trial_number": 10,
                    "trial_type": 1,
                    "condition": "target",
                    "reaction_time": 5000,
                    "button_press": 0,
                    "response_correct": false,
                    "is_target": "target",
                    "target_accuracy": "missed",
                    "trial_trigger_time": 100.02795729999889,
                    "s1_onset": 100.25333339999997,
                    "s2_onset": 105.26800639999965,
                    "trial_trigger_time_cor": 85.01299040000049,
                    "s1_onset_cor": 85.23836650000158,
                    "s2_onset_cor": 90.25303950000125,
                    "isi": 4.75,
                    "iti": 0.05,
                    "s1_filename": "stim\\im_c_03.jpg",
                    "s2_filename": "stim\\im_f_04.jpg",
                    "s1_category": "im",
                    "s2_category": "im",
                    "elapsed_since_previous": 8.996002100000624,
                    "timer": 78.99800080000023,
                    "tag": 85.01299040000049,
                    "block_start": 35.882664799999475,
                    "first_tag_trigger": 15.014966899998399
                },
                {
                    "trial_number": 11,
                    "global_trial_number": 11,
                    "trial_type": 2,
                    "condition": "incoherent_real",
                    "reaction_time": 5000,
                    "button_press": 0,
                    "response_correct": false,
                    "is_target": "normal",
                    "target_accuracy": "correct",
                    "trial_trigger_time": 108.01896159999887,
                    "s1_onset": 108.36664299999939,
                    "s2_onset": 112.88173129999996,
                    "trial_trigger_time_cor": 93.00399470000048,
                    "s1_onset_cor": 93.35167610000099,
                    "s2_onset_cor": 97.86676440000156,
                    "isi": 4.25,
                    "iti": 0.05,
                    "s1_filename": "stim\\hp_c_04.jpg",
                    "s2_filename": "stim\\am_f_03.jpg",
                    "s1_category": "hp",
                    "s2_category": "am",
                    "elapsed_since_previous": 7.991004299999986,
                    "timer": 86.98900510000021,
                    "tag": 93.00399470000048,
                    "block_start": 35.882664799999475,
                    "first_tag_trigger": 15.014966899998399
                },
                {
                    "trial_number": 12,
                    "global_trial_number": 12,
                    "trial_type": 4,
                    "condition": "neutral",
                    "reaction_time": 5000,
                    "button_press": 0,
                    "response_correct": false,
                    "is_target": "normal",
                    "target_accuracy": "correct",
                    "trial_trigger_time": 117.02996379999968,
                    "s1_onset": 117.27993089999836,
                    "s2_onset": 122.31121409999832,
                    "trial_trigger_time_cor": 102.01499690000128,
                    "s1_onset_cor": 102.26496399999996,
                    "s2_onset_cor": 107.29624719999993,
                    "isi": 4.75,
                    "iti": 0.05,
                    "s1_filename": "stim\\mock3_c_02.jpg",
                    "s2_filename": "stim\\hp_f_04.jpg",
                    "s1_category": "mock3",
                    "s2_category": "hp",
                    "elapsed_since_previous": 9.011002200000803,
                    "timer": 96.00000730000102,
                    "tag": 102.01499690000128,
                    "block_start": 35.882664799999475,
                    "first_tag_trigger": 15.014966899998399
                },
                {
                    "trial_number": 13,
                    "global_trial_number": 13,
                    "trial_type": 3,
                    "condition": "target",
                    "reaction_time": 5000,
                    "button_press": 0,
                    "response_correct": false,
                    "is_target": "target",
                    "target_accuracy": "missed",
                    "trial_trigger_time": 127.0189524999987,
                    "s1_onset": 127.2425889999995,
                    "s2_onset": 131.77416569999878,
                    "trial_trigger_time_cor": 112.0039856000003,
                    "s1_onset_cor": 112.2276221000011,
                    "s2_onset_cor": 116.75919880000038,
                    "isi": 4.25,
                    "iti": 0.05,
                    "s1_filename": "stim\\am_c_03.jpg",
                    "s2_filename": "stim\\mock4_f_01.jpg",
                    "s1_category": "am",
                    "s2_category": "mock4",
                    "elapsed_since_previous": 9.988988699999027,
                    "timer": 105.98899600000004,
                    "tag": 112.0039856000003,
                    "block_start": 35.882664799999475,
                    "first_tag_trigger": 15.014966899998399
                },
                {
                    "trial_number": 14,
                    "global_trial_number": 14,
                    "trial_type": 2,
                    "condition": "incoherent_real",
                    "reaction_time": 5000,
                    "button_press": 0,
                    "response_correct": false,
                    "is_target": "normal",
                    "target_accuracy": "correct",
                    "trial_trigger_time": 136.028924799999,
                    "s1_onset": 136.32217409999976,
                    "s2_onset": 141.58682399999998,
                    "trial_trigger_time_cor": 121.0139579000006,
                    "s1_onset_cor": 121.30720720000136,
                    "s2_onset_cor": 126.57185710000158,
                    "isi": 5,
                    "iti": 0.05,
                    "s1_filename": "stim\\im_c_01.jpg",
                    "s2_filename": "stim\\am_f_02.jpg",
                    "s1_category": "im",
                    "s2_category": "am",
                    "elapsed_since_previous": 9.0099723000003,
                    "timer": 114.99896830000034,
                    "tag": 121.0139579000006,
                    "block_start": 35.882664799999475,
                    "first_tag_trigger": 15.014966899998399
                },
                {
                    "trial_number": 15,
                    "global_trial_number": 15,
                    "trial_type": 1,
                    "condition": "coherent",
                    "reaction_time": 5000,
                    "button_press": 0,
                    "response_correct": false,
                    "is_target": "normal",
                    "target_accuracy": "correct",
                    "trial_trigger_time": 145.0219621999986,
                    "s1_onset": 145.31860349999988,
                    "s2_onset": 150.59985999999844,
                    "trial_trigger_time_cor": 130.0069953000002,
                    "s1_onset_cor": 130.30363660000148,
                    "s2_onset_cor": 135.58489310000004,
                    "isi": 5,
                    "iti": 0.05,
                    "s1_filename": "stim\\poc_c_02.jpg",
                    "s2_filename": "stim\\poc_f_04.jpg",
                    "s1_category": "poc",
                    "s2_category": "poc",
                    "elapsed_since_previous": 8.993037399999594,
                    "timer": 123.99200569999994,
                    "tag": 130.0069953000002,
                    "block_start": 35.882664799999475,
                    "first_tag_trigger": 15.014966899998399
                },
                {
                    "trial_number": 16,
                    "global_trial_number": 16,
                    "trial_type": 1,
                    "condition": "coherent",
                    "reaction_time": 5000,
                    "button_press": 0,
                    "response_correct": false,
                    "is_target": "normal",
                    "target_accuracy": "correct",
                    "trial_trigger_time": 154.02097959999992,
                    "s1_onset": 154.31498249999822,
                    "s2_onset": 159.34641509999892,
                    "trial_trigger_time_cor": 139.00601270000152,
                    "s1_onset_cor": 139.30001559999982,
                    "s2_onset_cor": 144.33144820000052,
                    "isi": 4.75,
                    "iti": 0.05,
                    "s1_filename": "stim\\hp_c_05.jpg",
                    "s2_filename": "stim\\hp_f_05.jpg",
                    "s1_category": "hp",
                    "s2_category": "hp",
                    "elapsed_since_previous": 8.999017400001321,
                    "timer": 132.99102310000126,
                    "tag": 139.00601270000152,
                    "block_start": 35.882664799999475,
                    "first_tag_trigger": 15.014966899998399
                },
                {
                    "trial_number": 17,
                    "global_trial_number": 17,
                    "trial_type": 3,
                    "condition": "incoherent_mock",
                    "reaction_time": 5000,
                    "button_press": 0,
                    "response_correct": false,
                    "is_target": "normal",
                    "target_accuracy": "correct",
                    "trial_trigger_time": 162.01998129999993,
                    "s1_onset": 162.29508539999915,
                    "s2_onset": 167.5764814999984,
                    "trial_trigger_time_cor": 147.00501440000153,
                    "s1_onset_cor": 147.28011850000075,
                    "s2_onset_cor": 152.5615146,
                    "isi": 5,
                    "iti": 0.05,
                    "s1_filename": "stim\\am_c_02.jpg",
                    "s2_filename": "stim\\mock3_f_01.jpg",
                    "s1_category": "am",
                    "s2_category": "mock3",
                    "elapsed_since_previous": 7.999001700000008,
                    "timer": 140.99002480000127,
                    "tag": 147.00501440000153,
                    "block_start": 35.882664799999475,
                    "first_tag_trigger": 15.014966899998399
                },
                {
                    "trial_number": 18,
                    "global_trial_number": 18,
                    "trial_type": 3,
                    "condition": "incoherent_mock",
                    "reaction_time": 5000,
                    "button_press": 0,
                    "response_correct": false,
                    "is_target": "normal",
                    "target_accuracy": "correct",
                    "trial_trigger_time": 171.0219505999994,
                    "s1_onset": 171.30814809999902,
                    "s2_onset": 176.33955979999882,
                    "trial_trigger_time_cor": 156.006983700001,
                    "s1_onset_cor": 156.29318120000062,
                    "s2_onset_cor": 161.32459290000043,
                    "isi": 4.75,
                    "iti": 0.05,
                    "s1_filename": "stim\\im_c_02.jpg",
                    "s2_filename": "stim\\mock4_f_05.jpg",
                    "s1_category": "im",
                    "s2_category": "mock4",
                    "elapsed_since_previous": 9.001969299999473,
                    "timer": 149.99199410000074,
                    "tag": 156.006983700001,
                    "block_start": 35.882664799999475,
                    "first_tag_trigger": 15.014966899998399
                },
                {
                    "trial_number": 19,
                    "global_trial_number": 19,
                    "trial_type": 4,
                    "condition": "target",
                    "reaction_time": 5000,
                    "button_press": 0,
                    "response_correct": false,
                    "is_target": "target",
                    "target_accuracy": "missed",
                    "trial_trigger_time": 181.01892979999866,
                    "s1_onset": 181.22090839999873,
                    "s2_onset": 186.00236389999918,
                    "trial_trigger_time_cor": 166.00396290000026,
                    "s1_onset_cor": 166.20594150000034,
                    "s2_onset_cor": 170.98739700000078,
                    "isi": 4.5,
                    "iti": 0.05,
                    "s1_filename": "stim\\mock2_c_03.jpg",
                    "s2_filename": "stim\\mock1_f_04.jpg",
                    "s1_category": "mock2",
                    "s2_category": "mock1",
                    "elapsed_since_previous": 9.99697919999926,
                    "timer": 159.9889733,
                    "tag": 166.00396290000026,
                    "block_start": 35.882664799999475,
                    "first_tag_trigger": 15.014966899998399
                },
                {
                    "trial_number": 20,
                    "global_trial_number": 20,
                    "trial_type": 1,
                    "condition": "coherent",
                    "reaction_time": 5000,
                    "button_press": 0,
                    "response_correct": false,
                    "is_target": "normal",
                    "target_accuracy": "correct",
                    "trial_trigger_time": 189.03092899999865,
                    "s1_onset": 189.25112389999958,
                    "s2_onset": 193.53264369999852,
                    "trial_trigger_time_cor": 174.01596210000025,
                    "s1_onset_cor": 174.23615700000119,
                    "s2_onset_cor": 178.51767680000012,
                    "isi": 4,
                    "iti": 0.05,
                    "s1_filename": "stim\\poc_c_01.jpg",
                    "s2_filename": "stim\\poc_f_05.jpg",
                    "s1_category": "poc",
                    "s2_category": "poc",
                    "elapsed_since_previous": 8.011999199999991,
                    "timer": 168.0009725,
                    "tag": 174.01596210000025,
                    "block_start": 35.882664799999475,
                    "first_tag_trigger": 15.014966899998399
                },
                {
                    "trial_number": 21,
                    "global_trial_number": 21,
                    "trial_type": 2,
                    "condition": "incoherent_real",
                    "reaction_time": 5000,
                    "button_press": 0,
                    "response_correct": false,
                    "is_target": "normal",
                    "target_accuracy": "correct",
                    "trial_trigger_time": 196.03386699999828,
                    "s1_onset": 196.24819229999957,
                    "s2_onset": 200.77959889999875,
                    "trial_trigger_time_cor": 181.01890009999988,
                    "s1_onset_cor": 181.23322540000117,
                    "s2_onset_cor": 185.76463200000035,
                    "isi": 4.25,
                    "iti": 0.05,
                    "s1_filename": "stim\\am_c_05.jpg",
                    "s2_filename": "stim\\poc_f_02.jpg",
                    "s1_category": "am",
                    "s2_category": "poc",
                    "elapsed_since_previous": 7.002937999999631,
                    "timer": 175.00391049999962,
                    "tag": 181.01890009999988,
                    "block_start": 35.882664799999475,
                    "first_tag_trigger": 15.014966899998399
                },
                {
                    "trial_number": 22,
                    "global_trial_number": 22,
                    "trial_type": 1,
                    "condition": "coherent",
                    "reaction_time": 5000,
                    "button_press": 0,
                    "response_correct": false,
                    "is_target": "normal",
                    "target_accuracy": "correct",
                    "trial_trigger_time": 203.01887819999865,
                    "s1_onset": 203.22862429999986,
                    "s2_onset": 208.50997229999848,
                    "trial_trigger_time_cor": 188.00391130000025,
                    "s1_onset_cor": 188.21365740000147,
                    "s2_onset_cor": 193.49500540000008,
                    "isi": 5,
                    "iti": 0.05,
                    "s1_filename": "stim\\im_c_05.jpg",
                    "s2_filename": "stim\\im_f_01.jpg",
                    "s1_category": "im",
                    "s2_category": "im",
                    "elapsed_since_previous": 6.985011200000372,
                    "timer": 181.9889217,
                    "tag": 188.00391130000025,
                    "block_start": 35.882664799999475,
                    "first_tag_trigger": 15.014966899998399
                },
                {
                    "trial_number": 23,
                    "global_trial_number": 23,
                    "trial_type": 2,
                    "condition": "target",
                    "reaction_time": 5000,
                    "button_press": 0,
                    "response_correct": false,
                    "is_target": "target",
                    "target_accuracy": "missed",
                    "trial_trigger_time": 213.0289004999995,
                    "s1_onset": 213.27490379999836,
                    "s2_onset": 217.80640799999856,
                    "trial_trigger_time_cor": 198.0139336000011,
                    "s1_onset_cor": 198.25993689999996,
                    "s2_onset_cor": 202.79144110000016,
                    "isi": 4.25,
                    "iti": 0.05,
                    "s1_filename": "stim\\hp_c_03.jpg",
                    "s2_filename": "stim\\im_f_03.jpg",
                    "s1_category": "hp",
                    "s2_category": "im",
                    "elapsed_since_previous": 10.010022300000855,
                    "timer": 191.99894400000085,
                    "tag": 198.0139336000011,
                    "block_start": 35.882664799999475,
                    "first_tag_trigger": 15.014966899998399
                },
                {
                    "trial_number": 24,
                    "global_trial_number": 24,
                    "trial_type": 2,
                    "condition": "incoherent_real",
                    "reaction_time": 5000,
                    "button_press": 0,
                    "response_correct": false,
                    "is_target": "normal",
                    "target_accuracy": "correct",
                    "trial_trigger_time": 221.03086189999885,
                    "s1_onset": 221.23809309999888,
                    "s2_onset": 225.51997529999971,
                    "trial_trigger_time_cor": 206.01589500000046,
                    "s1_onset_cor": 206.22312620000048,
                    "s2_onset_cor": 210.50500840000132,
                    "isi": 4,
                    "iti": 0.05,
                    "s1_filename": "stim\\im_c_04.jpg",
                    "s2_filename": "stim\\hp_f_03.jpg",
                    "s1_category": "im",
                    "s2_category": "hp",
                    "elapsed_since_previous": 8.001961399999345,
                    "timer": 200.0009054000002,
                    "tag": 206.01589500000046,
                    "block_start": 35.882664799999475,
                    "first_tag_trigger": 15.014966899998399
                },
                {
                    "trial_number": 25,
                    "global_trial_number": 25,
                    "trial_type": 2,
                    "condition": "incoherent_real",
                    "reaction_time": 5000,
                    "button_press": 0,
                    "response_correct": false,
                    "is_target": "normal",
                    "target_accuracy": "correct",
                    "trial_trigger_time": 228.0239453999984,
                    "s1_onset": 228.2519958999983,
                    "s2_onset": 232.53372619999936,
                    "trial_trigger_time_cor": 213.0089785,
                    "s1_onset_cor": 213.2370289999999,
                    "s2_onset_cor": 217.51875930000097,
                    "isi": 4,
                    "iti": 0.05,
                    "s1_filename": "stim\\hp_c_01.jpg",
                    "s2_filename": "stim\\am_f_04.jpg",
                    "s1_category": "hp",
                    "s2_category": "am",
                    "elapsed_since_previous": 6.993083499999557,
                    "timer": 206.99398889999975,
                    "tag": 213.0089785,
                    "block_start": 35.882664799999475,
                    "first_tag_trigger": 15.014966899998399
                },
                {
                    "trial_number": 26,
                    "global_trial_number": 26,
                    "trial_type": 3,
                    "condition": "incoherent_mock",
                    "reaction_time": 5000,
                    "button_press": 0,
                    "response_correct": false,
                    "is_target": "normal",
                    "target_accuracy": "correct",
                    "trial_trigger_time": 235.02098139999907,
                    "s1_onset": 235.38243449999936,
                    "s2_onset": 239.89743219999946,
                    "trial_trigger_time_cor": 220.00601450000067,
                    "s1_onset_cor": 220.36746760000096,
                    "s2_onset_cor": 224.88246530000106,
                    "isi": 4.25,
                    "iti": 0.05,
                    "s1_filename": "stim\\poc_c_04.jpg",
                    "s2_filename": "stim\\mock3_f_04.jpg",
                    "s1_category": "poc",
                    "s2_category": "mock3",
                    "elapsed_since_previous": 6.997036000000662,
                    "timer": 213.9910249000004,
                    "tag": 220.00601450000067,
                    "block_start": 35.882664799999475,
                    "first_tag_trigger": 15.014966899998399
                },
                {
                    "trial_number": 27,
                    "global_trial_number": 27,
                    "trial_type": 4,
                    "condition": "neutral",
                    "reaction_time": 5000,
                    "button_press": 0,
                    "response_correct": false,
                    "is_target": "normal",
                    "target_accuracy": "correct",
                    "trial_trigger_time": 243.02886729999955,
                    "s1_onset": 243.2628098999994,
                    "s2_onset": 247.54438779999873,
                    "trial_trigger_time_cor": 228.01390040000115,
                    "s1_onset_cor": 228.247843000001,
                    "s2_onset_cor": 232.52942090000033,
                    "isi": 4,
                    "iti": 0.05,
                    "s1_filename": "stim\\mock1_c_03.jpg",
                    "s2_filename": "stim\\mock1_f_05.jpg",
                    "s1_category": "mock1",
                    "s2_category": "mock1",
                    "elapsed_since_previous": 8.007885900000474,
                    "timer": 221.99891080000089,
                    "tag": 228.01390040000115,
                    "block_start": 35.882664799999475,
                    "first_tag_trigger": 15.014966899998399
                },
                {
                    "trial_number": 28,
                    "global_trial_number": 28,
                    "trial_type": 4,
                    "condition": "neutral",
                    "reaction_time": 5000,
                    "button_press": 0,
                    "response_correct": false,
                    "is_target": "normal",
                    "target_accuracy": "correct",
                    "trial_trigger_time": 251.0218473999994,
                    "s1_onset": 251.30950159999884,
                    "s2_onset": 255.59119969999847,
                    "trial_trigger_time_cor": 236.006880500001,
                    "s1_onset_cor": 236.29453470000044,
                    "s2_onset_cor": 240.57623280000007,
                    "isi": 4,
                    "iti": 0.05,
                    "s1_filename": "stim\\mock4_c_04.jpg",
                    "s2_filename": "stim\\mock3_f_03.jpg",
                    "s1_category": "mock4",
                    "s2_category": "mock3",
                    "elapsed_since_previous": 7.992980099999841,
                    "timer": 229.99189090000073,
                    "tag": 236.006880500001,
                    "block_start": 35.882664799999475,
                    "first_tag_trigger": 15.014966899998399
                },
                {
                    "trial_number": 29,
                    "global_trial_number": 29,
                    "trial_type": 1,
                    "condition": "coherent",
                    "reaction_time": 5000,
                    "button_press": 0,
                    "response_correct": false,
                    "is_target": "normal",
                    "target_accuracy": "correct",
                    "trial_trigger_time": 258.02696209999885,
                    "s1_onset": 258.3401626999985,
                    "s2_onset": 263.37128629999825,
                    "trial_trigger_time_cor": 243.01199520000046,
                    "s1_onset_cor": 243.32519580000007,
                    "s2_onset_cor": 248.35631939999985,
                    "isi": 4.75,
                    "iti": 0.05,
                    "s1_filename": "stim\\im_c_02.jpg",
                    "s2_filename": "stim\\im_f_02.jpg",
                    "s1_category": "im",
                    "s2_category": "im",
                    "elapsed_since_previous": 7.005114699999467,
                    "timer": 236.9970056000002,
                    "tag": 243.01199520000046,
                    "block_start": 35.882664799999475,
                    "first_tag_trigger": 15.014966899998399
                },
                {
                    "trial_number": 30,
                    "global_trial_number": 30,
                    "trial_type": 4,
                    "condition": "neutral",
                    "reaction_time": 5000,
                    "button_press": 0,
                    "response_correct": false,
                    "is_target": "normal",
                    "target_accuracy": "correct",
                    "trial_trigger_time": 268.01895499999955,
                    "s1_onset": 268.3191868999984,
                    "s2_onset": 273.33395159999964,
                    "trial_trigger_time_cor": 253.00398810000115,
                    "s1_onset_cor": 253.30422,
                    "s2_onset_cor": 258.31898470000124,
                    "isi": 4.75,
                    "iti": 0.05,
                    "s1_filename": "stim\\mock3_c_04.jpg",
                    "s2_filename": "stim\\mock1_f_01.jpg",
                    "s1_category": "mock3",
                    "s2_category": "mock1",
                    "elapsed_since_previous": 9.991992900000696,
                    "timer": 246.9889985000009,
                    "tag": 253.00398810000115,
                    "block_start": 35.882664799999475,
                    "first_tag_trigger": 15.014966899998399
                }
            ]
        },
        {
            "block_number": 2,
            "block_type": "Alternation Block",
            "trials": [
                {
                    "trial_number": 1,
                    "global_trial_number": 31,
                    "trial_type": 3,
                    "condition": "incoherent_mock",
                    "reaction_time": 5000,
                    "button_press": 0,
                    "response_correct": false,
                    "is_target": "normal",
                    "target_accuracy": "correct",
                    "trial_trigger_time": 288.0248789999987,
                    "s1_onset": 288.2778750999987,
                    "s2_onset": 293.5427276999999,
                    "trial_trigger_time_cor": 273.0099121000003,
                    "s1_onset_cor": 273.2629082000003,
                    "s2_onset_cor": 278.5277608000015,
                    "isi": 5,
                    "iti": 0.05,
                    "s1_filename": "stim\\poc_c_03.jpg",
                    "s2_filename": "stim\\mock2_f_01.jpg",
                    "s1_category": "poc",
                    "s2_category": "mock2",
                    "elapsed_since_previous": 20.00592399999914,
                    "timer": 266.99492250000003,
                    "tag": 273.0099121000003,
                    "block_start": 35.882664799999475,
                    "first_tag_trigger": 15.014966899998399
                },
                {
                    "trial_number": 2,
                    "global_trial_number": 32,
                    "trial_type": 2,
                    "condition": "incoherent_real",
                    "reaction_time": 5000,
                    "button_press": 0,
                    "response_correct": false,
                    "is_target": "normal",
                    "target_accuracy": "correct",
                    "trial_trigger_time": 296.02180059999955,
                    "s1_onset": 296.3582357999985,
                    "s2_onset": 301.13959649999924,
                    "trial_trigger_time_cor": 281.00683370000115,
                    "s1_onset_cor": 281.3432689000001,
                    "s2_onset_cor": 286.12462960000084,
                    "isi": 4.5,
                    "iti": 0.05,
                    "s1_filename": "stim\\im_c_03.jpg",
                    "s2_filename": "stim\\am_f_01.jpg",
                    "s1_category": "im",
                    "s2_category": "am",
                    "elapsed_since_previous": 7.99692160000086,
                    "timer": 274.9918441000009,
                    "tag": 281.00683370000115,
                    "block_start": 35.882664799999475,
                    "first_tag_trigger": 15.014966899998399
                },
                {
                    "trial_number": 3,
                    "global_trial_number": 33,
                    "trial_type": 1,
                    "condition": "coherent",
                    "reaction_time": 5000,
                    "button_press": 0,
                    "response_correct": false,
                    "is_target": "normal",
                    "target_accuracy": "correct",
                    "trial_trigger_time": 305.02989779999916,
                    "s1_onset": 305.2549136999987,
                    "s2_onset": 309.7861972999999,
                    "trial_trigger_time_cor": 290.01493090000076,
                    "s1_onset_cor": 290.2399468000003,
                    "s2_onset_cor": 294.7712304000015,
                    "isi": 4.25,
                    "iti": 0.05,
                    "s1_filename": "stim\\hp_c_05.jpg",
                    "s2_filename": "stim\\hp_f_03.jpg",
                    "s1_category": "hp",
                    "s2_category": "hp",
                    "elapsed_since_previous": 9.008097199999611,
                    "timer": 283.9999413000005,
                    "tag": 290.01493090000076,
                    "block_start": 35.882664799999475,
                    "first_tag_trigger": 15.014966899998399
                },
                {
                    "trial_number": 4,
                    "global_trial_number": 34,
                    "trial_type": 1,
                    "condition": "coherent",
                    "reaction_time": 5000,
                    "button_press": 0,
                    "response_correct": false,
                    "is_target": "normal",
                    "target_accuracy": "correct",
                    "trial_trigger_time": 312.0210169999991,
                    "s1_onset": 312.26841969999987,
                    "s2_onset": 317.0497815999988,
                    "trial_trigger_time_cor": 297.0060501000007,
                    "s1_onset_cor": 297.25345280000147,
                    "s2_onset_cor": 302.0348147000004,
                    "isi": 4.5,
                    "iti": 0.05,
                    "s1_filename": "stim\\am_c_02.jpg",
                    "s2_filename": "stim\\am_f_03.jpg",
                    "s1_category": "am",
                    "s2_category": "am",
                    "elapsed_since_previous": 6.991119199999957,
                    "timer": 290.99106050000046,
                    "tag": 297.0060501000007,
                    "block_start": 35.882664799999475,
                    "first_tag_trigger": 15.014966899998399
                },
                {
                    "trial_number": 5,
                    "global_trial_number": 35,
                    "trial_type": 3,
                    "condition": "incoherent_mock",
                    "reaction_time": 5000,
                    "button_press": 0,
                    "response_correct": false,
                    "is_target": "normal",
                    "target_accuracy": "correct",
                    "trial_trigger_time": 320.02294989999973,
                    "s1_onset": 320.28201499999886,
                    "s2_onset": 325.04677139999876,
                    "trial_trigger_time_cor": 305.00798300000133,
                    "s1_onset_cor": 305.26704810000047,
                    "s2_onset_cor": 310.03180450000036,
                    "isi": 4.5,
                    "iti": 0.05,
                    "s1_filename": "stim\\poc_c_02.jpg",
                    "s2_filename": "stim\\mock2_f_03.jpg",
                    "s1_category": "poc",
                    "s2_category": "mock2",
                    "elapsed_since_previous": 8.001932900000611,
                    "timer": 298.99299340000107,
                    "tag": 305.00798300000133,
                    "block_start": 35.882664799999475,
                    "first_tag_trigger": 15.014966899998399
                },
                {
                    "trial_number": 6,
                    "global_trial_number": 36,
                    "trial_type": 4,
                    "condition": "neutral",
                    "reaction_time": 5000,
                    "button_press": 0,
                    "response_correct": false,
                    "is_target": "normal",
                    "target_accuracy": "correct",
                    "trial_trigger_time": 330.0278617999993,
                    "s1_onset": 330.344642,
                    "s2_onset": 334.62630309999986,
                    "trial_trigger_time_cor": 315.0128949000009,
                    "s1_onset_cor": 315.3296751000016,
                    "s2_onset_cor": 319.61133620000146,
                    "isi": 4,
                    "iti": 0.05,
                    "s1_filename": "stim\\mock4_c_03.jpg",
                    "s2_filename": "stim\\mock_f_03.jpg",
                    "s1_category": "mock4",
                    "s2_category": "mock",
                    "elapsed_since_previous": 10.00491189999957,
                    "timer": 308.99790530000064,
                    "tag": 315.0128949000009,
                    "block_start": 35.882664799999475,
                    "first_tag_trigger": 15.014966899998399
                },
                {
                    "trial_number": 7,
                    "global_trial_number": 37,
                    "trial_type": 1,
                    "condition": "target",
                    "reaction_time": 5000,
                    "button_press": 0,
                    "response_correct": false,
                    "is_target": "target",
                    "target_accuracy": "missed",
                    "trial_trigger_time": 339.0199569999986,
                    "s1_onset": 339.3241528999988,
                    "s2_onset": 344.5888735999997,
                    "trial_trigger_time_cor": 324.0049901000002,
                    "s1_onset_cor": 324.3091860000004,
                    "s2_onset_cor": 329.5739067000013,
                    "isi": 5,
                    "iti": 0.05,
                    "s1_filename": "stim\\im_c_01.jpg",
                    "s2_filename": "stim\\im_f_01.jpg",
                    "s1_category": "im",
                    "s2_category": "im",
                    "elapsed_since_previous": 8.992095199999312,
                    "timer": 317.99000049999995,
                    "tag": 324.0049901000002,
                    "block_start": 35.882664799999475,
                    "first_tag_trigger": 15.014966899998399
                },
                {
                    "trial_number": 8,
                    "global_trial_number": 38,
                    "trial_type": 3,
                    "condition": "incoherent_mock",
                    "reaction_time": 5000,
                    "button_press": 0,
                    "response_correct": false,
                    "is_target": "normal",
                    "target_accuracy": "correct",
                    "trial_trigger_time": 349.0229135999998,
                    "s1_onset": 349.2536494999986,
                    "s2_onset": 353.7853078999997,
                    "trial_trigger_time_cor": 334.0079467000014,
                    "s1_onset_cor": 334.2386826000002,
                    "s2_onset_cor": 338.7703410000013,
                    "isi": 4.25,
                    "iti": 0.05,
                    "s1_filename": "stim\\poc_c_05.jpg",
                    "s2_filename": "stim\\mock4_f_02.jpg",
                    "s1_category": "poc",
                    "s2_category": "mock4",
                    "elapsed_since_previous": 10.002956600001198,
                    "timer": 327.99295710000115,
                    "tag": 334.0079467000014,
                    "block_start": 35.882664799999475,
                    "first_tag_trigger": 15.014966899998399
                },
                {
                    "trial_number": 9,
                    "global_trial_number": 39,
                    "trial_type": 4,
                    "condition": "neutral",
                    "reaction_time": 5000,
                    "button_press": 0,
                    "response_correct": false,
                    "is_target": "normal",
                    "target_accuracy": "correct",
                    "trial_trigger_time": 357.02095219999865,
                    "s1_onset": 357.2672993999986,
                    "s2_onset": 362.04868779999924,
                    "trial_trigger_time_cor": 342.00598530000025,
                    "s1_onset_cor": 342.2523325000002,
                    "s2_onset_cor": 347.03372090000084,
                    "isi": 4.5,
                    "iti": 0.05,
                    "s1_filename": "stim\\mock2_c_04.jpg",
                    "s2_filename": "stim\\mock4_f_04.jpg",
                    "s1_category": "mock2",
                    "s2_category": "mock4",
                    "elapsed_since_previous": 7.998038599998836,
                    "timer": 335.9909957,
                    "tag": 342.00598530000025,
                    "block_start": 35.882664799999475,
                    "first_tag_trigger": 15.014966899998399
                },
                {
                    "trial_number": 10,
                    "global_trial_number": 40,
                    "trial_type": 3,
                    "condition": "incoherent_mock",
                    "reaction_time": 5000,
                    "button_press": 0,
                    "response_correct": false,
                    "is_target": "normal",
                    "target_accuracy": "correct",
                    "trial_trigger_time": 366.0248313999982,
                    "s1_onset": 366.2304209999984,
                    "s2_onset": 370.5118696999998,
                    "trial_trigger_time_cor": 351.0098644999998,
                    "s1_onset_cor": 351.2154541,
                    "s2_onset_cor": 355.4969028000014,
                    "isi": 4,
                    "iti": 0.05,
                    "s1_filename": "stim\\am_c_04.jpg",
                    "s2_filename": "stim\\mock1_f_02.jpg",
                    "s1_category": "am",
                    "s2_category": "mock1",
                    "elapsed_since_previous": 9.003879199999574,
                    "timer": 344.99487489999956,
                    "tag": 351.0098644999998,
                    "block_start": 35.882664799999475,
                    "first_tag_trigger": 15.014966899998399
                },
                {
                    "trial_number": 11,
                    "global_trial_number": 41,
                    "trial_type": 3,
                    "condition": "incoherent_mock",
                    "reaction_time": 5000,
                    "button_press": 0,
                    "response_correct": false,
                    "is_target": "normal",
                    "target_accuracy": "correct",
                    "trial_trigger_time": 373.01889729999857,
                    "s1_onset": 373.2608008999996,
                    "s2_onset": 377.5425447999987,
                    "trial_trigger_time_cor": 358.0039304000002,
                    "s1_onset_cor": 358.2458340000012,
                    "s2_onset_cor": 362.5275779000003,
                    "isi": 4,
                    "iti": 0.05,
                    "s1_filename": "stim\\hp_c_01.jpg",
                    "s2_filename": "stim\\mock3_f_02.jpg",
                    "s1_category": "hp",
                    "s2_category": "mock3",
                    "elapsed_since_previous": 6.994065900000351,
                    "timer": 351.9889407999999,
                    "tag": 358.0039304000002,
                    "block_start": 35.882664799999475,
                    "first_tag_trigger": 15.014966899998399
                },
                {
                    "trial_number": 12,
                    "global_trial_number": 42,
                    "trial_type": 4,
                    "condition": "neutral",
                    "reaction_time": 5000,
                    "button_press": 0,
                    "response_correct": false,
                    "is_target": "normal",
                    "target_accuracy": "correct",
                    "trial_trigger_time": 382.02399799999876,
                    "s1_onset": 382.29056479999963,
                    "s2_onset": 386.8221799999992,
                    "trial_trigger_time_cor": 367.00903110000036,
                    "s1_onset_cor": 367.27559790000123,
                    "s2_onset_cor": 371.8072131000008,
                    "isi": 4.25,
                    "iti": 0.05,
                    "s1_filename": "stim\\mock1_c_04.jpg",
                    "s2_filename": "stim\\mock2_f_05.jpg",
                    "s1_category": "mock1",
                    "s2_category": "mock2",
                    "elapsed_since_previous": 9.005100700000185,
                    "timer": 360.9940415000001,
                    "tag": 367.00903110000036,
                    "block_start": 35.882664799999475,
                    "first_tag_trigger": 15.014966899998399
                },
                {
                    "trial_number": 13,
                    "global_trial_number": 43,
                    "trial_type": 2,
                    "condition": "incoherent_real",
                    "reaction_time": 5000,
                    "button_press": 0,
                    "response_correct": false,
                    "is_target": "normal",
                    "target_accuracy": "correct",
                    "trial_trigger_time": 391.01796079999986,
                    "s1_onset": 391.2369671999986,
                    "s2_onset": 395.7685819999988,
                    "trial_trigger_time_cor": 376.00299390000146,
                    "s1_onset_cor": 376.2220003000002,
                    "s2_onset_cor": 380.7536151000004,
                    "isi": 4.25,
                    "iti": 0.05,
                    "s1_filename": "stim\\im_c_05.jpg",
                    "s2_filename": "stim\\poc_f_01.jpg",
                    "s1_category": "im",
                    "s2_category": "poc",
                    "elapsed_since_previous": 8.9939628000011,
                    "timer": 369.9880043000012,
                    "tag": 376.00299390000146,
                    "block_start": 35.882664799999475,
                    "first_tag_trigger": 15.014966899998399
                },
                {
                    "trial_number": 14,
                    "global_trial_number": 44,
                    "trial_type": 4,
                    "condition": "target",
                    "reaction_time": 5000,
                    "button_press": 0,
                    "response_correct": false,
                    "is_target": "target",
                    "target_accuracy": "missed",
                    "trial_trigger_time": 398.02893049999875,
                    "s1_onset": 398.25073129999873,
                    "s2_onset": 402.5325804999993,
                    "trial_trigger_time_cor": 383.01396360000035,
                    "s1_onset_cor": 383.23576440000033,
                    "s2_onset_cor": 387.5176136000009,
                    "isi": 4,
                    "iti": 0.05,
                    "s1_filename": "stim\\mock2_c_01.jpg",
                    "s2_filename": "stim\\mock3_f_05.jpg",
                    "s1_category": "mock2",
                    "s2_category": "mock3",
                    "elapsed_since_previous": 7.0109696999988955,
                    "timer": 376.9989740000001,
                    "tag": 383.01396360000035,
                    "block_start": 35.882664799999475,
                    "first_tag_trigger": 15.014966899998399
                },
                {
                    "trial_number": 15,
                    "global_trial_number": 45,
                    "trial_type": 3,
                    "condition": "incoherent_mock",
                    "reaction_time": 5000,
                    "button_press": 0,
                    "response_correct": false,
                    "is_target": "normal",
                    "target_accuracy": "correct",
                    "trial_trigger_time": 405.03191699999843,
                    "s1_onset": 405.2480418999985,
                    "s2_onset": 410.5292138999994,
                    "trial_trigger_time_cor": 390.01695010000003,
                    "s1_onset_cor": 390.2330750000001,
                    "s2_onset_cor": 395.514247000001,
                    "isi": 5,
                    "iti": 0.05,
                    "s1_filename": "stim\\am_c_01.jpg",
                    "s2_filename": "stim\\poc_f_03.jpg",
                    "s1_category": "am",
                    "s2_category": "poc",
                    "elapsed_since_previous": 7.002986499999679,
                    "timer": 384.00196049999977,
                    "tag": 390.01695010000003,
                    "block_start": 35.882664799999475,
                    "first_tag_trigger": 15.014966899998399
                },
                {
                    "trial_number": 16,
                    "global_trial_number": 46,
                    "trial_type": 1,
                    "condition": "coherent",
                    "reaction_time": 5000,
                    "button_press": 0,
                    "response_correct": false,
                    "is_target": "normal",
                    "target_accuracy": "correct",
                    "trial_trigger_time": 414.0218014999991,
                    "s1_onset": 414.2443226999985,
                    "s2_onset": 418.7593702999984,
                    "trial_trigger_time_cor": 399.00683460000073,
                    "s1_onset_cor": 399.2293558000001,
                    "s2_onset_cor": 403.7444034,
                    "isi": 4.25,
                    "iti": 0.05,
                    "s1_filename": "stim\\hp_c_02.jpg",
                    "s2_filename": "stim\\hp_f_02.jpg",
                    "s1_category": "hp",
                    "s2_category": "hp",
                    "elapsed_since_previous": 8.989884500000699,
                    "timer": 392.99184500000047,
                    "tag": 399.00683460000073,
                    "block_start": 35.882664799999475,
                    "first_tag_trigger": 15.014966899998399
                },
                {
                    "trial_number": 17,
                    "global_trial_number": 47,
                    "trial_type": 1,
                    "condition": "coherent",
                    "reaction_time": 5000,
                    "button_press": 0,
                    "response_correct": false,
                    "is_target": "normal",
                    "target_accuracy": "correct",
                    "trial_trigger_time": 423.0309158,
                    "s1_onset": 423.32416829999966,
                    "s2_onset": 427.85575339999923,
                    "trial_trigger_time_cor": 408.0159489000016,
                    "s1_onset_cor": 408.30920140000126,
                    "s2_onset_cor": 412.84078650000083,
                    "isi": 4.25,
                    "iti": 0.05,
                    "s1_filename": "stim\\poc_c_01.jpg",
                    "s2_filename": "stim\\poc_f_02.jpg",
                    "s1_category": "poc",
                    "s2_category": "poc",
                    "elapsed_since_previous": 9.009114300000874,
                    "timer": 402.00095930000134,
                    "tag": 408.0159489000016,
                    "block_start": 35.882664799999475,
                    "first_tag_trigger": 15.014966899998399
                },
                {
                    "trial_number": 18,
                    "global_trial_number": 48,
                    "trial_type": 1,
                    "condition": "target",
                    "reaction_time": 5000,
                    "button_press": 0,
                    "response_correct": false,
                    "is_target": "target",
                    "target_accuracy": "missed",
                    "trial_trigger_time": 430.02489779999996,
                    "s1_onset": 430.23794649999945,
                    "s2_onset": 435.51935179999964,
                    "trial_trigger_time_cor": 415.00993090000156,
                    "s1_onset_cor": 415.22297960000105,
                    "s2_onset_cor": 420.50438490000124,
                    "isi": 5,
                    "iti": 0.05,
                    "s1_filename": "stim\\im_c_04.jpg",
                    "s2_filename": "stim\\im_f_05.jpg",
                    "s1_category": "im",
                    "s2_category": "im",
                    "elapsed_since_previous": 6.99398199999996,
                    "timer": 408.9949413000013,
                    "tag": 415.00993090000156,
                    "block_start": 35.882664799999475,
                    "first_tag_trigger": 15.014966899998399
                },
                {
                    "trial_number": 19,
                    "global_trial_number": 49,
                    "trial_type": 1,
                    "condition": "coherent",
                    "reaction_time": 5000,
                    "button_press": 0,
                    "response_correct": false,
                    "is_target": "normal",
                    "target_accuracy": "correct",
                    "trial_trigger_time": 439.03085869999995,
                    "s1_onset": 439.3176079999994,
                    "s2_onset": 444.58241299999827,
                    "trial_trigger_time_cor": 424.01589180000155,
                    "s1_onset_cor": 424.302641100001,
                    "s2_onset_cor": 429.56744609999987,
                    "isi": 5,
                    "iti": 0.05,
                    "s1_filename": "stim\\hp_c_03.jpg",
                    "s2_filename": "stim\\hp_f_01.jpg",
                    "s1_category": "hp",
                    "s2_category": "hp",
                    "elapsed_since_previous": 9.005960899999991,
                    "timer": 418.0009022000013,
                    "tag": 424.01589180000155,
                    "block_start": 35.882664799999475,
                    "first_tag_trigger": 15.014966899998399
                },
                {
                    "trial_number": 20,
                    "global_trial_number": 50,
                    "trial_type": 2,
                    "condition": "target",
                    "reaction_time": 5000,
                    "button_press": 0,
                    "response_correct": false,
                    "is_target": "target",
                    "target_accuracy": "missed",
                    "trial_trigger_time": 447.0319321999996,
                    "s1_onset": 447.26453369999945,
                    "s2_onset": 452.0294501999997,
                    "trial_trigger_time_cor": 432.0169653000012,
                    "s1_onset_cor": 432.24956680000105,
                    "s2_onset_cor": 437.0144833000013,
                    "isi": 4.5,
                    "iti": 0.05,
                    "s1_filename": "stim\\am_c_03.jpg",
                    "s2_filename": "stim\\poc_f_01.jpg",
                    "s1_category": "am",
                    "s2_category": "poc",
                    "elapsed_since_previous": 8.00107349999962,
                    "timer": 426.0019757000009,
                    "tag": 432.0169653000012,
                    "block_start": 35.882664799999475,
                    "first_tag_trigger": 15.014966899998399
                },
                {
                    "trial_number": 21,
                    "global_trial_number": 51,
                    "trial_type": 3,
                    "condition": "incoherent_mock",
                    "reaction_time": 5000,
                    "button_press": 0,
                    "response_correct": false,
                    "is_target": "normal",
                    "target_accuracy": "correct",
                    "trial_trigger_time": 457.02687069999956,
                    "s1_onset": 457.3273715999985,
                    "s2_onset": 461.6088974999984,
                    "trial_trigger_time_cor": 442.01190380000116,
                    "s1_onset_cor": 442.3124047000001,
                    "s2_onset_cor": 446.5939306,
                    "isi": 4,
                    "iti": 0.05,
                    "s1_filename": "stim\\hp_c_04.jpg",
                    "s2_filename": "stim\\mock1_f_03.jpg",
                    "s1_category": "hp",
                    "s2_category": "mock1",
                    "elapsed_since_previous": 9.99493849999999,
                    "timer": 435.9969142000009,
                    "tag": 442.01190380000116,
                    "block_start": 35.882664799999475,
                    "first_tag_trigger": 15.014966899998399
                },
                {
                    "trial_number": 22,
                    "global_trial_number": 52,
                    "trial_type": 2,
                    "condition": "incoherent_real",
                    "reaction_time": 5000,
                    "button_press": 0,
                    "response_correct": false,
                    "is_target": "normal",
                    "target_accuracy": "correct",
                    "trial_trigger_time": 464.0228324999989,
                    "s1_onset": 464.3243664999991,
                    "s2_onset": 468.5895273999995,
                    "trial_trigger_time_cor": 449.0078656000005,
                    "s1_onset_cor": 449.3093996000007,
                    "s2_onset_cor": 453.5745605000011,
                    "isi": 4,
                    "iti": 0.05,
                    "s1_filename": "stim\\am_c_05.jpg",
                    "s2_filename": "stim\\hp_f_04.jpg",
                    "s1_category": "am",
                    "s2_category": "hp",
                    "elapsed_since_previous": 6.99596179999935,
                    "timer": 442.99287600000025,
                    "tag": 449.0078656000005,
                    "block_start": 35.882664799999475,
                    "first_tag_trigger": 15.014966899998399
                },
                {
                    "trial_number": 23,
                    "global_trial_number": 53,
                    "trial_type": 1,
                    "condition": "coherent",
                    "reaction_time": 5000,
                    "button_press": 0,
                    "response_correct": false,
                    "is_target": "normal",
                    "target_accuracy": "correct",
                    "trial_trigger_time": 471.0219528999987,
                    "s1_onset": 471.2884114999997,
                    "s2_onset": 476.5696586999984,
                    "trial_trigger_time_cor": 456.0069860000003,
                    "s1_onset_cor": 456.2734446000013,
                    "s2_onset_cor": 461.5546918,
                    "isi": 5,
                    "iti": 0.05,
                    "s1_filename": "stim\\im_c_03.jpg",
                    "s2_filename": "stim\\im_f_03.jpg",
                    "s1_category": "im",
                    "s2_category": "im",
                    "elapsed_since_previous": 6.999120399999811,
                    "timer": 449.99199640000006,
                    "tag": 456.0069860000003,
                    "block_start": 35.882664799999475,
                    "first_tag_trigger": 15.014966899998399
                },
                {
                    "trial_number": 24,
                    "global_trial_number": 54,
                    "trial_type": 1,
                    "condition": "coherent",
                    "reaction_time": 5000,
                    "button_press": 0,
                    "response_correct": false,
                    "is_target": "normal",
                    "target_accuracy": "correct",
                    "trial_trigger_time": 480.0240787999992,
                    "s1_onset": 480.28473869999834,
                    "s2_onset": 484.56647489999887,
                    "trial_trigger_time_cor": 465.0091119000008,
                    "s1_onset_cor": 465.26977179999994,
                    "s2_onset_cor": 469.55150800000047,
                    "isi": 4,
                    "iti": 0.05,
                    "s1_filename": "stim\\am_c_02.jpg",
                    "s2_filename": "stim\\am_f_04.jpg",
                    "s1_category": "am",
                    "s2_category": "am",
                    "elapsed_since_previous": 9.002125900000465,
                    "timer": 458.9941223000005,
                    "tag": 465.0091119000008,
                    "block_start": 35.882664799999475,
                    "first_tag_trigger": 15.014966899998399
                },
                {
                    "trial_number": 25,
                    "global_trial_number": 55,
                    "trial_type": 2,
                    "condition": "incoherent_real",
                    "reaction_time": 5000,
                    "button_press": 0,
                    "response_correct": false,
                    "is_target": "normal",
                    "target_accuracy": "correct",
                    "trial_trigger_time": 488.025929899999,
                    "s1_onset": 488.23158129999865,
                    "s2_onset": 493.01304789999995,
                    "trial_trigger_time_cor": 473.01096300000063,
                    "s1_onset_cor": 473.21661440000025,
                    "s2_onset_cor": 477.99808100000155,
                    "isi": 4.5,
                    "iti": 0.05,
                    "s1_filename": "stim\\poc_c_01.jpg",
                    "s2_filename": "stim\\mock2_f_01.jpg",
                    "s1_category": "poc",
                    "s2_category": "mock2",
                    "elapsed_since_previous": 8.00185109999984,
                    "timer": 466.99597340000037,
                    "tag": 473.01096300000063,
                    "block_start": 35.882664799999475,
                    "first_tag_trigger": 15.014966899998399
                },
                {
                    "trial_number": 26,
                    "global_trial_number": 56,
                    "trial_type": 2,
                    "condition": "incoherent_real",
                    "reaction_time": 5000,
                    "button_press": 0,
                    "response_correct": false,
                    "is_target": "normal",
                    "target_accuracy": "correct",
                    "trial_trigger_time": 498.01895909999985,
                    "s1_onset": 498.22775289999845,
                    "s2_onset": 503.25912289999906,
                    "trial_trigger_time_cor": 483.00399220000145,
                    "s1_onset_cor": 483.21278600000005,
                    "s2_onset_cor": 488.24415600000066,
                    "isi": 4.75,
                    "iti": 0.05,
                    "s1_filename": "stim\\hp_c_04.jpg",
                    "s2_filename": "stim\\poc_f_05.jpg",
                    "s1_category": "hp",
                    "s2_category": "poc",
                    "elapsed_since_previous": 9.99302920000082,
                    "timer": 476.9890026000012,
                    "tag": 483.00399220000145,
                    "block_start": 35.882664799999475,
                    "first_tag_trigger": 15.014966899998399
                },
                {
                    "trial_number": 27,
                    "global_trial_number": 57,
                    "trial_type": 3,
                    "condition": "incoherent_mock",
                    "reaction_time": 5000,
                    "button_press": 0,
                    "response_correct": false,
                    "is_target": "normal",
                    "target_accuracy": "correct",
                    "trial_trigger_time": 506.0258973,
                    "s1_onset": 506.3410280999997,
                    "s2_onset": 511.122571599999,
                    "trial_trigger_time_cor": 491.0109304000016,
                    "s1_onset_cor": 491.3260612000013,
                    "s2_onset_cor": 496.1076047000006,
                    "isi": 4.5,
                    "iti": 0.05,
                    "s1_filename": "stim\\im_c_01.jpg",
                    "s2_filename": "stim\\mock2_f_02.jpg",
                    "s1_category": "im",
                    "s2_category": "mock2",
                    "elapsed_since_previous": 8.00693820000015,
                    "timer": 484.99594080000134,
                    "tag": 491.0109304000016,
                    "block_start": 35.882664799999475,
                    "first_tag_trigger": 15.014966899998399
                },
                {
                    "trial_number": 28,
                    "global_trial_number": 58,
                    "trial_type": 2,
                    "condition": "incoherent_real",
                    "reaction_time": 5000,
                    "button_press": 0,
                    "response_correct": false,
                    "is_target": "normal",
                    "target_accuracy": "correct",
                    "trial_trigger_time": 514.0189587999994,
                    "s1_onset": 514.2879278,
                    "s2_onset": 519.319268199999,
                    "trial_trigger_time_cor": 499.003991900001,
                    "s1_onset_cor": 499.27296090000164,
                    "s2_onset_cor": 504.3043013000006,
                    "isi": 4.75,
                    "iti": 0.05,
                    "s1_filename": "stim\\hp_c_02.jpg",
                    "s2_filename": "stim\\am_f_02.jpg",
                    "s1_category": "hp",
                    "s2_category": "am",
                    "elapsed_since_previous": 7.993061499999385,
                    "timer": 492.9890023000007,
                    "tag": 499.003991900001,
                    "block_start": 35.882664799999475,
                    "first_tag_trigger": 15.014966899998399
                },
                {
                    "trial_number": 29,
                    "global_trial_number": 59,
                    "trial_type": 4,
                    "condition": "neutral",
                    "reaction_time": 5000,
                    "button_press": 0,
                    "response_correct": false,
                    "is_target": "normal",
                    "target_accuracy": "correct",
                    "trial_trigger_time": 523.0208457999997,
                    "s1_onset": 523.2842561999987,
                    "s2_onset": 528.0658751999999,
                    "trial_trigger_time_cor": 508.00587890000133,
                    "s1_onset_cor": 508.2692893000003,
                    "s2_onset_cor": 513.0509083000015,
                    "isi": 4.5,
                    "iti": 0.05,
                    "s1_filename": "stim\\mock1_c_02.jpg",
                    "s2_filename": "stim\\mock1_f_01.jpg",
                    "s1_category": "mock1",
                    "s2_category": "mock1",
                    "elapsed_since_previous": 9.001887000000352,
                    "timer": 501.9908893000011,
                    "tag": 508.00587890000133,
                    "block_start": 35.882664799999475,
                    "first_tag_trigger": 15.014966899998399
                },
                {
                    "trial_number": 30,
                    "global_trial_number": 60,
                    "trial_type": 1,
                    "condition": "coherent",
                    "reaction_time": 5000,
                    "button_press": 0,
                    "response_correct": false,
                    "is_target": "normal",
                    "target_accuracy": "correct",
                    "trial_trigger_time": 532.0298742999985,
                    "s1_onset": 532.3307466999995,
                    "s2_onset": 536.8622149999992,
                    "trial_trigger_time_cor": 517.0149074000001,
                    "s1_onset_cor": 517.3157798000011,
                    "s2_onset_cor": 521.8472481000008,
                    "isi": 4.25,
                    "iti": 0.05,
                    "s1_filename": "stim\\poc_c_02.jpg",
                    "s2_filename": "stim\\poc_f_04.jpg",
                    "s1_category": "poc",
                    "s2_category": "poc",
                    "elapsed_since_previous": 9.009028499998749,
                    "timer": 510.9999177999998,
                    "tag": 517.0149074000001,
                    "block_start": 35.882664799999475,
                    "first_tag_trigger": 15.014966899998399
                }
            ]
        }
    ]
}