{
    "participant": {
        "id": "JF",
        "name": ""
    },
    "run": "4",
    "debug_mode": false,
    "testing": false,
    "monitor": {
        "name": "MyMonitor",
        "resolution": [
            1920,
            1080
        ],
        "width_cm": 42.0,
        "distance_cm": 57.0
    },
    "experiment_start": null,
    "experiment_end": "2026-01-12T12:27:47.139171",
    "total_duration_sec": null,
    "blocks": [
        {
            "block_number": 1,
            "block_type": "Alternation Block",
            "trials": [
                {
                    "trial_number": 1,
                    "global_trial_number": 1,
                    "trial_type": 3,
                    "condition": "incoherent_mock",
                    "reaction_time": 5000,
                    "button_press": 0,
                    "response_correct": false,
                    "is_target": "normal",
                    "target_accuracy": "correct",
                    "trial_trigger_time": 19.18599230000109,
                    "s1_onset": 19.390383500000098,
                    "s2_onset": 24.67176500000096,
                    "trial_trigger_time_cor": 6.007125600001018,
                    "s1_onset_cor": 6.211516800000027,
                    "s2_onset_cor": 11.492898300000888,
                    "isi": 5,
                    "iti": 0.05,
                    "s1_filename": "stim\\poc_c_02.jpg",
                    "s2_filename": "stim\\mock_f_03.jpg",
                    "s1_category": "poc",
                    "s2_category": "mock",
                    "elapsed_since_previous": 0,
                    "timer": 0.0,
                    "tag": 6.007125600001018,
                    "block_start": 36.57362229999853,
                    "first_tag_trigger": 13.178866700000071
                },
                {
                    "trial_number": 2,
                    "global_trial_number": 2,
                    "trial_type": 1,
                    "condition": "coherent",
                    "reaction_time": 5000,
                    "button_press": 0,
                    "response_correct": false,
                    "is_target": "normal",
                    "target_accuracy": "correct",
                    "trial_trigger_time": 28.1889656000003,
                    "s1_onset": 28.503479200000584,
                    "s2_onset": 33.26855129999967,
                    "trial_trigger_time_cor": 15.01009890000023,
                    "s1_onset_cor": 15.324612500000512,
                    "s2_onset_cor": 20.0896845999996,
                    "isi": 4.5,
                    "iti": 0.05,
                    "s1_filename": "stim\\hp_c_01.jpg",
                    "s2_filename": "stim\\hp_f_04.jpg",
                    "s1_category": "hp",
                    "s2_category": "hp",
                    "elapsed_since_previous": 9.002973299999212,
                    "timer": 9.002973299999212,
                    "tag": 15.01009890000023,
                    "block_start": 36.57362229999853,
                    "first_tag_trigger": 13.178866700000071
                },
                {
                    "trial_number": 3,
                    "global_trial_number": 3,
                    "trial_type": 2,
                    "condition": "incoherent_real",
                    "reaction_time": 5000,
                    "button_press": 0,
                    "response_correct": false,
                    "is_target": "normal",
                    "target_accuracy": "correct",
                    "trial_trigger_time": 36.19300000000112,
                    "s1_onset": 36.46725530000003,
                    "s2_onset": 40.99885209999957,
                    "trial_trigger_time_cor": 23.01413330000105,
                    "s1_onset_cor": 23.288388599999962,
                    "s2_onset_cor": 27.819985399999496,
                    "isi": 4.25,
                    "iti": 0.05,
                    "s1_filename": "stim\\im_c_01.jpg",
                    "s2_filename": "stim\\am_f_02.jpg",
                    "s1_category": "im",
                    "s2_category": "am",
                    "elapsed_since_previous": 8.004034400000819,
                    "timer": 17.00700770000003,
                    "tag": 23.01413330000105,
                    "block_start": 36.57362229999853,
                    "first_tag_trigger": 13.178866700000071
                },
                {
                    "trial_number": 4,
                    "global_trial_number": 4,
                    "trial_type": 2,
                    "condition": "incoherent_real",
                    "reaction_time": 5000,
                    "button_press": 0,
                    "response_correct": false,
                    "is_target": "normal",
                    "target_accuracy": "correct",
                    "trial_trigger_time": 45.19099409999944,
                    "s1_onset": 45.496940000000905,
                    "s2_onset": 50.01171389999945,
                    "trial_trigger_time_cor": 32.01212739999937,
                    "s1_onset_cor": 32.31807330000083,
                    "s2_onset_cor": 36.83284719999938,
                    "isi": 4.25,
                    "iti": 0.05,
                    "s1_filename": "stim\\hp_c_03.jpg",
                    "s2_filename": "stim\\im_f_02.jpg",
                    "s1_category": "hp",
                    "s2_category": "im",
                    "elapsed_since_previous": 8.997994099998323,
                    "timer": 26.005001799998354,
                    "tag": 32.01212739999937,
                    "block_start": 36.57362229999853,
                    "first_tag_trigger": 13.178866700000071
                },
                {
                    "trial_number": 5,
                    "global_trial_number": 5,
                    "trial_type": 3,
                    "condition": "target",
                    "reaction_time": 5000,
                    "button_press": 0,
                    "response_correct": false,
                    "is_target": "target",
                    "target_accuracy": "missed",
                    "trial_trigger_time": 54.192903600000136,
                    "s1_onset": 54.443535899999915,
                    "s2_onset": 58.95859999999993,
                    "trial_trigger_time_cor": 41.014036900000065,
                    "s1_onset_cor": 41.264669199999844,
                    "s2_onset_cor": 45.77973329999986,
                    "isi": 4.25,
                    "iti": 0.05,
                    "s1_filename": "stim\\poc_c_03.jpg",
                    "s2_filename": "stim\\mock2_f_01.jpg",
                    "s1_category": "poc",
                    "s2_category": "mock2",
                    "elapsed_since_previous": 9.001909500000693,
                    "timer": 35.00691129999905,
                    "tag": 41.014036900000065,
                    "block_start": 36.57362229999853,
                    "first_tag_trigger": 13.178866700000071
                },
                {
                    "trial_number": 6,
                    "global_trial_number": 6,
                    "trial_type": 1,
                    "condition": "coherent",
                    "reaction_time": 5000,
                    "button_press": 0,
                    "response_correct": false,
                    "is_target": "normal",
                    "target_accuracy": "correct",
                    "trial_trigger_time": 63.192993300001035,
                    "s1_onset": 63.50669270000071,
                    "s2_onset": 67.77187159999994,
                    "trial_trigger_time_cor": 50.014126600000964,
                    "s1_onset_cor": 50.32782600000064,
                    "s2_onset_cor": 54.59300489999987,
                    "isi": 4,
                    "iti": 0.05,
                    "s1_filename": "stim\\hp_c_04.jpg",
                    "s2_filename": "stim\\hp_f_05.jpg",
                    "s1_category": "hp",
                    "s2_category": "hp",
                    "elapsed_since_previous": 9.000089700000899,
                    "timer": 44.007000999999946,
                    "tag": 50.014126600000964,
                    "block_start": 36.57362229999853,
                    "first_tag_trigger": 13.178866700000071
                },
                {
                    "trial_number": 7,
                    "global_trial_number": 7,
                    "trial_type": 3,
                    "condition": "incoherent_mock",
                    "reaction_time": 5000,
                    "button_press": 0,
                    "response_correct": false,
                    "is_target": "normal",
                    "target_accuracy": "correct",
                    "trial_trigger_time": 72.1959136000005,
                    "s1_onset": 72.42000089999965,
                    "s2_onset": 76.95166179999978,
                    "trial_trigger_time_cor": 59.01704690000042,
                    "s1_onset_cor": 59.24113419999958,
                    "s2_onset_cor": 63.77279509999971,
                    "isi": 4.25,
                    "iti": 0.05,
                    "s1_filename": "stim\\im_c_05.jpg",
                    "s2_filename": "stim\\mock3_f_01.jpg",
                    "s1_category": "im",
                    "s2_category": "mock3",
                    "elapsed_since_previous": 9.00292029999946,
                    "timer": 53.009921299999405,
                    "tag": 59.01704690000042,
                    "block_start": 36.57362229999853,
                    "first_tag_trigger": 13.178866700000071
                },
                {
                    "trial_number": 8,
                    "global_trial_number": 8,
                    "trial_type": 1,
                    "condition": "coherent",
                    "reaction_time": 5000,
                    "button_press": 0,
                    "response_correct": false,
                    "is_target": "normal",
                    "target_accuracy": "correct",
                    "trial_trigger_time": 81.19287240000085,
                    "s1_onset": 81.45010440000078,
                    "s2_onset": 86.73120139999992,
                    "trial_trigger_time_cor": 68.01400570000078,
                    "s1_onset_cor": 68.27123770000071,
                    "s2_onset_cor": 73.55233469999985,
                    "isi": 5,
                    "iti": 0.05,
                    "s1_filename": "stim\\am_c_04.jpg",
                    "s2_filename": "stim\\am_f_04.jpg",
                    "s1_category": "am",
                    "s2_category": "am",
                    "elapsed_since_previous": 8.996958800000357,
                    "timer": 62.00688009999976,
                    "tag": 68.01400570000078,
                    "block_start": 36.57362229999853,
                    "first_tag_trigger": 13.178866700000071
                },
                {
                    "trial_number": 9,
                    "global_trial_number": 9,
                    "trial_type": 1,
                    "condition": "coherent",
                    "reaction_time": 5000,
                    "button_press": 0,
                    "response_correct": false,
                    "is_target": "normal",
                    "target_accuracy": "correct",
                    "trial_trigger_time": 90.190956800001,
                    "s1_onset": 90.54631710000103,
                    "s2_onset": 95.81100789999982,
                    "trial_trigger_time_cor": 77.01209010000093,
                    "s1_onset_cor": 77.36745040000096,
                    "s2_onset_cor": 82.63214119999975,
                    "isi": 5,
                    "iti": 0.05,
                    "s1_filename": "stim\\poc_c_05.jpg",
                    "s2_filename": "stim\\poc_f_05.jpg",
                    "s1_category": "poc",
                    "s2_category": "poc",
                    "elapsed_since_previous": 8.998084400000153,
                    "timer": 71.00496449999991,
                    "tag": 77.01209010000093,
                    "block_start": 36.57362229999853,
                    "first_tag_trigger": 13.178866700000071
                },
                {
                    "trial_number": 10,
                    "global_trial_number": 10,
                    "trial_type": 3,
                    "condition": "incoherent_mock",
                    "reaction_time": 5000,
                    "button_press": 0,
                    "response_correct": false,
                    "is_target": "normal",
                    "target_accuracy": "correct",
                    "trial_trigger_time": 100.18200679999973,
                    "s1_onset": 100.39254600000095,
                    "s2_onset": 105.67394810000042,
                    "trial_trigger_time_cor": 87.00314009999965,
                    "s1_onset_cor": 87.21367930000088,
                    "s2_onset_cor": 92.49508140000034,
                    "isi": 5,
                    "iti": 0.05,
                    "s1_filename": "stim\\hp_c_02.jpg",
                    "s2_filename": "stim\\mock1_f_05.jpg",
                    "s1_category": "hp",
                    "s2_category": "mock1",
                    "elapsed_since_previous": 9.991049999998722,
                    "timer": 80.99601449999864,
                    "tag": 87.00314009999965,
                    "block_start": 36.57362229999853,
                    "first_tag_trigger": 13.178866700000071
                },
                {
                    "trial_number": 11,
                    "global_trial_number": 11,
                    "trial_type": 1,
                    "condition": "coherent",
                    "reaction_time": 5000,
                    "button_press": 0,
                    "response_correct": false,
                    "is_target": "normal",
                    "target_accuracy": "correct",
                    "trial_trigger_time": 109.18700750000062,
                    "s1_onset": 109.45593879999979,
                    "s2_onset": 113.98741169999994,
                    "trial_trigger_time_cor": 96.00814080000055,
                    "s1_onset_cor": 96.27707209999971,
                    "s2_onset_cor": 100.80854499999987,
                    "isi": 4.25,
                    "iti": 0.05,
                    "s1_filename": "stim\\im_c_02.jpg",
                    "s2_filename": "stim\\im_f_04.jpg",
                    "s1_category": "im",
                    "s2_category": "im",
                    "elapsed_since_previous": 9.005000700000892,
                    "timer": 90.00101519999953,
                    "tag": 96.00814080000055,
                    "block_start": 36.57362229999853,
                    "first_tag_trigger": 13.178866700000071
                },
                {
                    "trial_number": 12,
                    "global_trial_number": 12,
                    "trial_type": 1,
                    "condition": "coherent",
                    "reaction_time": 5000,
                    "button_press": 0,
                    "response_correct": false,
                    "is_target": "normal",
                    "target_accuracy": "correct",
                    "trial_trigger_time": 116.18989850000071,
                    "s1_onset": 116.4197705000006,
                    "s2_onset": 120.93488509999952,
                    "trial_trigger_time_cor": 103.01103180000064,
                    "s1_onset_cor": 103.24090380000052,
                    "s2_onset_cor": 107.75601839999945,
                    "isi": 4.25,
                    "iti": 0.05,
                    "s1_filename": "stim\\am_c_03.jpg",
                    "s2_filename": "stim\\am_f_01.jpg",
                    "s1_category": "am",
                    "s2_category": "am",
                    "elapsed_since_previous": 7.002891000000091,
                    "timer": 97.00390619999962,
                    "tag": 103.01103180000064,
                    "block_start": 36.57362229999853,
                    "first_tag_trigger": 13.178866700000071
                },
                {
                    "trial_number": 13,
                    "global_trial_number": 13,
                    "trial_type": 2,
                    "condition": "incoherent_real",
                    "reaction_time": 5000,
                    "button_press": 0,
                    "response_correct": false,
                    "is_target": "normal",
                    "target_accuracy": "correct",
                    "trial_trigger_time": 123.18207989999974,
                    "s1_onset": 123.46757939999952,
                    "s2_onset": 128.49868539999989,
                    "trial_trigger_time_cor": 110.00321319999966,
                    "s1_onset_cor": 110.28871269999945,
                    "s2_onset_cor": 115.31981869999981,
                    "isi": 4.75,
                    "iti": 0.05,
                    "s1_filename": "stim\\poc_c_04.jpg",
                    "s2_filename": "stim\\am_f_03.jpg",
                    "s1_category": "poc",
                    "s2_category": "am",
                    "elapsed_since_previous": 6.992181399999026,
                    "timer": 103.99608759999865,
                    "tag": 110.00321319999966,
                    "block_start": 36.57362229999853,
                    "first_tag_trigger": 13.178866700000071
                },
                {
                    "trial_number": 14,
                    "global_trial_number": 14,
                    "trial_type": 2,
                    "condition": "target",
                    "reaction_time": 5000,
                    "button_press": 0,
                    "response_correct": false,
                    "is_target": "target",
                    "target_accuracy": "missed",
                    "trial_trigger_time": 132.18899369999963,
                    "s1_onset": 132.46369500000037,
                    "s2_onset": 137.7451086000001,
                    "trial_trigger_time_cor": 119.01012699999956,
                    "s1_onset_cor": 119.2848283000003,
                    "s2_onset_cor": 124.56624190000002,
                    "isi": 5,
                    "iti": 0.05,
                    "s1_filename": "stim\\am_c_01.jpg",
                    "s2_filename": "stim\\im_f_05.jpg",
                    "s1_category": "am",
                    "s2_category": "im",
                    "elapsed_since_previous": 9.006913799999893,
                    "timer": 113.00300139999854,
                    "tag": 119.01012699999956,
                    "block_start": 36.57362229999853,
                    "first_tag_trigger": 13.178866700000071
                },
                {
                    "trial_number": 15,
                    "global_trial_number": 15,
                    "trial_type": 2,
                    "condition": "incoherent_real",
                    "reaction_time": 5000,
                    "button_press": 0,
                    "response_correct": false,
                    "is_target": "normal",
                    "target_accuracy": "correct",
                    "trial_trigger_time": 141.18594119999943,
                    "s1_onset": 141.41033249999964,
                    "s2_onset": 145.94186810000065,
                    "trial_trigger_time_cor": 128.00707449999936,
                    "s1_onset_cor": 128.23146579999957,
                    "s2_onset_cor": 132.76300140000058,
                    "isi": 4.25,
                    "iti": 0.05,
                    "s1_filename": "stim\\poc_c_01.jpg",
                    "s2_filename": "stim\\hp_f_02.jpg",
                    "s1_category": "poc",
                    "s2_category": "hp",
                    "elapsed_since_previous": 8.996947499999806,
                    "timer": 121.99994889999834,
                    "tag": 128.00707449999936,
                    "block_start": 36.57362229999853,
                    "first_tag_trigger": 13.178866700000071
                },
                {
                    "trial_number": 16,
                    "global_trial_number": 16,
                    "trial_type": 4,
                    "condition": "neutral",
                    "reaction_time": 5000,
                    "button_press": 0,
                    "response_correct": false,
                    "is_target": "normal",
                    "target_accuracy": "correct",
                    "trial_trigger_time": 150.19193720000112,
                    "s1_onset": 150.40674990000116,
                    "s2_onset": 154.67209619999994,
                    "trial_trigger_time_cor": 137.01307050000105,
                    "s1_onset_cor": 137.2278832000011,
                    "s2_onset_cor": 141.49322949999987,
                    "isi": 4,
                    "iti": 0.05,
                    "s1_filename": "stim\\mock4_c_01.jpg",
                    "s2_filename": "stim\\mock1_f_04.jpg",
                    "s1_category": "mock4",
                    "s2_category": "mock1",
                    "elapsed_since_previous": 9.005996000001687,
                    "timer": 131.00594490000003,
                    "tag": 137.01307050000105,
                    "block_start": 36.57362229999853,
                    "first_tag_trigger": 13.178866700000071
                },
                {
                    "trial_number": 17,
                    "global_trial_number": 17,
                    "trial_type": 4,
                    "condition": "neutral",
                    "reaction_time": 5000,
                    "button_press": 0,
                    "response_correct": false,
                    "is_target": "normal",
                    "target_accuracy": "correct",
                    "trial_trigger_time": 158.18693379999968,
                    "s1_onset": 158.42060070000116,
                    "s2_onset": 163.70184019999942,
                    "trial_trigger_time_cor": 145.0080670999996,
                    "s1_onset_cor": 145.2417340000011,
                    "s2_onset_cor": 150.52297349999935,
                    "isi": 5,
                    "iti": 0.05,
                    "s1_filename": "stim\\mock2_c_01.jpg",
                    "s2_filename": "stim\\mock4_f_02.jpg",
                    "s1_category": "mock2",
                    "s2_category": "mock4",
                    "elapsed_since_previous": 7.994996599998558,
                    "timer": 139.0009414999986,
                    "tag": 145.0080670999996,
                    "block_start": 36.57362229999853,
                    "first_tag_trigger": 13.178866700000071
                },
                {
                    "trial_number": 18,
                    "global_trial_number": 18,
                    "trial_type": 2,
                    "condition": "incoherent_real",
                    "reaction_time": 5000,
                    "button_press": 0,
                    "response_correct": false,
                    "is_target": "normal",
                    "target_accuracy": "correct",
                    "trial_trigger_time": 166.18996870000046,
                    "s1_onset": 166.45074569999997,
                    "s2_onset": 171.73210810000091,
                    "trial_trigger_time_cor": 153.0111020000004,
                    "s1_onset_cor": 153.2718789999999,
                    "s2_onset_cor": 158.55324140000084,
                    "isi": 5,
                    "iti": 0.05,
                    "s1_filename": "stim\\am_c_05.jpg",
                    "s2_filename": "stim\\poc_f_02.jpg",
                    "s1_category": "am",
                    "s2_category": "poc",
                    "elapsed_since_previous": 8.003034900000785,
                    "timer": 147.00397639999937,
                    "tag": 153.0111020000004,
                    "block_start": 36.57362229999853,
                    "first_tag_trigger": 13.178866700000071
                },
                {
                    "trial_number": 19,
                    "global_trial_number": 19,
                    "trial_type": 4,
                    "condition": "neutral",
                    "reaction_time": 5000,
                    "button_press": 0,
                    "response_correct": false,
                    "is_target": "normal",
                    "target_accuracy": "correct",
                    "trial_trigger_time": 176.1868986999998,
                    "s1_onset": 176.41377289999946,
                    "s2_onset": 181.19524629999978,
                    "trial_trigger_time_cor": 163.00803199999973,
                    "s1_onset_cor": 163.2349061999994,
                    "s2_onset_cor": 168.0163795999997,
                    "isi": 4.5,
                    "iti": 0.05,
                    "s1_filename": "stim\\mock3_c_01.jpg",
                    "s2_filename": "stim\\mock1_f_01.jpg",
                    "s1_category": "mock3",
                    "s2_category": "mock1",
                    "elapsed_since_previous": 9.996929999999338,
                    "timer": 157.0009063999987,
                    "tag": 163.00803199999973,
                    "block_start": 36.57362229999853,
                    "first_tag_trigger": 13.178866700000071
                },
                {
                    "trial_number": 20,
                    "global_trial_number": 20,
                    "trial_type": 3,
                    "condition": "incoherent_mock",
                    "reaction_time": 5000,
                    "button_press": 0,
                    "response_correct": false,
                    "is_target": "normal",
                    "target_accuracy": "correct",
                    "trial_trigger_time": 186.19395030000123,
                    "s1_onset": 186.44318150000072,
                    "s2_onset": 191.22463659999994,
                    "trial_trigger_time_cor": 173.01508360000116,
                    "s1_onset_cor": 173.26431480000065,
                    "s2_onset_cor": 178.04576989999987,
                    "isi": 4.5,
                    "iti": 0.05,
                    "s1_filename": "stim\\im_c_03.jpg",
                    "s2_filename": "stim\\mock1_f_03.jpg",
                    "s1_category": "im",
                    "s2_category": "mock1",
                    "elapsed_since_previous": 10.007051600001432,
                    "timer": 167.00795800000014,
                    "tag": 173.01508360000116,
                    "block_start": 36.57362229999853,
                    "first_tag_trigger": 13.178866700000071
                },
                {
                    "trial_number": 21,
                    "global_trial_number": 21,
                    "trial_type": 2,
                    "condition": "incoherent_real",
                    "reaction_time": 5000,
                    "button_press": 0,
                    "response_correct": false,
                    "is_target": "normal",
                    "target_accuracy": "correct",
                    "trial_trigger_time": 195.19291010000052,
                    "s1_onset": 195.4068231000001,
                    "s2_onset": 200.18797430000086,
                    "trial_trigger_time_cor": 182.01404340000045,
                    "s1_onset_cor": 182.22795640000004,
                    "s2_onset_cor": 187.0091076000008,
                    "isi": 4.5,
                    "iti": 0.05,
                    "s1_filename": "stim\\am_c_02.jpg",
                    "s2_filename": "stim\\hp_f_01.jpg",
                    "s1_category": "am",
                    "s2_category": "hp",
                    "elapsed_since_previous": 8.998959799999284,
                    "timer": 176.00691779999943,
                    "tag": 182.01404340000045,
                    "block_start": 36.57362229999853,
                    "first_tag_trigger": 13.178866700000071
                },
                {
                    "trial_number": 22,
                    "global_trial_number": 22,
                    "trial_type": 4,
                    "condition": "neutral",
                    "reaction_time": 5000,
                    "button_press": 0,
                    "response_correct": false,
                    "is_target": "normal",
                    "target_accuracy": "correct",
                    "trial_trigger_time": 203.190939600001,
                    "s1_onset": 203.45332229999985,
                    "s2_onset": 207.96838890000072,
                    "trial_trigger_time_cor": 190.01207290000093,
                    "s1_onset_cor": 190.27445559999978,
                    "s2_onset_cor": 194.78952220000065,
                    "isi": 4.25,
                    "iti": 0.05,
                    "s1_filename": "stim\\mock4_c_03.jpg",
                    "s2_filename": "stim\\hp_f_03.jpg",
                    "s1_category": "mock4",
                    "s2_category": "hp",
                    "elapsed_since_previous": 7.998029500000484,
                    "timer": 184.0049472999999,
                    "tag": 190.01207290000093,
                    "block_start": 36.57362229999853,
                    "first_tag_trigger": 13.178866700000071
                },
                {
                    "trial_number": 23,
                    "global_trial_number": 23,
                    "trial_type": 3,
                    "condition": "incoherent_mock",
                    "reaction_time": 5000,
                    "button_press": 0,
                    "response_correct": false,
                    "is_target": "normal",
                    "target_accuracy": "correct",
                    "trial_trigger_time": 211.19193180000002,
                    "s1_onset": 211.50036060000093,
                    "s2_onset": 216.5316444,
                    "trial_trigger_time_cor": 198.01306509999995,
                    "s1_onset_cor": 198.32149390000086,
                    "s2_onset_cor": 203.35277769999993,
                    "isi": 4.75,
                    "iti": 0.05,
                    "s1_filename": "stim\\hp_c_05.jpg",
                    "s2_filename": "stim\\mock3_f_02.jpg",
                    "s1_category": "hp",
                    "s2_category": "mock3",
                    "elapsed_since_previous": 8.000992199999018,
                    "timer": 192.00593949999893,
                    "tag": 198.01306509999995,
                    "block_start": 36.57362229999853,
                    "first_tag_trigger": 13.178866700000071
                },
                {
                    "trial_number": 24,
                    "global_trial_number": 24,
                    "trial_type": 2,
                    "condition": "incoherent_real",
                    "reaction_time": 5000,
                    "button_press": 0,
                    "response_correct": false,
                    "is_target": "normal",
                    "target_accuracy": "correct",
                    "trial_trigger_time": 219.18396010000106,
                    "s1_onset": 219.3971433000006,
                    "s2_onset": 223.92873979999968,
                    "trial_trigger_time_cor": 206.005093400001,
                    "s1_onset_cor": 206.21827660000054,
                    "s2_onset_cor": 210.7498730999996,
                    "isi": 4.25,
                    "iti": 0.05,
                    "s1_filename": "stim\\im_c_04.jpg",
                    "s2_filename": "stim\\poc_f_01.jpg",
                    "s1_category": "im",
                    "s2_category": "poc",
                    "elapsed_since_previous": 7.992028300001039,
                    "timer": 199.99796779999997,
                    "tag": 206.005093400001,
                    "block_start": 36.57362229999853,
                    "first_tag_trigger": 13.178866700000071
                },
                {
                    "trial_number": 25,
                    "global_trial_number": 25,
                    "trial_type": 4,
                    "condition": "neutral",
                    "reaction_time": 5000,
                    "button_press": 0,
                    "response_correct": false,
                    "is_target": "normal",
                    "target_accuracy": "correct",
                    "trial_trigger_time": 226.18399669999962,
                    "s1_onset": 226.44415339999978,
                    "s2_onset": 230.70934900000066,
                    "trial_trigger_time_cor": 213.00512999999955,
                    "s1_onset_cor": 213.2652866999997,
                    "s2_onset_cor": 217.53048230000059,
                    "isi": 4,
                    "iti": 0.05,
                    "s1_filename": "stim\\mock3_c_05.jpg",
                    "s2_filename": "stim\\poc_f_03.jpg",
                    "s1_category": "mock3",
                    "s2_category": "poc",
                    "elapsed_since_previous": 7.000036599998566,
                    "timer": 206.99800439999854,
                    "tag": 213.00512999999955,
                    "block_start": 36.57362229999853,
                    "first_tag_trigger": 13.178866700000071
                },
                {
                    "trial_number": 26,
                    "global_trial_number": 26,
                    "trial_type": 4,
                    "condition": "neutral",
                    "reaction_time": 5000,
                    "button_press": 0,
                    "response_correct": false,
                    "is_target": "normal",
                    "target_accuracy": "correct",
                    "trial_trigger_time": 235.1959098999996,
                    "s1_onset": 235.42394500000046,
                    "s2_onset": 239.95548120000058,
                    "trial_trigger_time_cor": 222.01704319999953,
                    "s1_onset_cor": 222.2450783000004,
                    "s2_onset_cor": 226.7766145000005,
                    "isi": 4.25,
                    "iti": 0.05,
                    "s1_filename": "stim\\mock2_c_03.jpg",
                    "s2_filename": "stim\\im_f_03.jpg",
                    "s1_category": "mock2",
                    "s2_category": "im",
                    "elapsed_since_previous": 9.01191319999998,
                    "timer": 216.00991759999852,
                    "tag": 222.01704319999953,
                    "block_start": 36.57362229999853,
                    "first_tag_trigger": 13.178866700000071
                },
                {
                    "trial_number": 27,
                    "global_trial_number": 27,
                    "trial_type": 1,
                    "condition": "coherent",
                    "reaction_time": 5000,
                    "button_press": 0,
                    "response_correct": false,
                    "is_target": "normal",
                    "target_accuracy": "correct",
                    "trial_trigger_time": 242.19106099999954,
                    "s1_onset": 242.43768930000078,
                    "s2_onset": 247.4525420000009,
                    "trial_trigger_time_cor": 229.01219429999946,
                    "s1_onset_cor": 229.2588226000007,
                    "s2_onset_cor": 234.27367530000083,
                    "isi": 4.75,
                    "iti": 0.05,
                    "s1_filename": "stim\\poc_c_01.jpg",
                    "s2_filename": "stim\\poc_f_04.jpg",
                    "s1_category": "poc",
                    "s2_category": "poc",
                    "elapsed_since_previous": 6.99515109999993,
                    "timer": 223.00506869999845,
                    "tag": 229.01219429999946,
                    "block_start": 36.57362229999853,
                    "first_tag_trigger": 13.178866700000071
                },
                {
                    "trial_number": 28,
                    "global_trial_number": 28,
                    "trial_type": 1,
                    "condition": "coherent",
                    "reaction_time": 5000,
                    "button_press": 0,
                    "response_correct": false,
                    "is_target": "normal",
                    "target_accuracy": "correct",
                    "trial_trigger_time": 252.19399390000035,
                    "s1_onset": 252.43372210000052,
                    "s2_onset": 257.4650873999999,
                    "trial_trigger_time_cor": 239.01512720000028,
                    "s1_onset_cor": 239.25485540000045,
                    "s2_onset_cor": 244.28622069999983,
                    "isi": 4.75,
                    "iti": 0.05,
                    "s1_filename": "stim\\am_c_01.jpg",
                    "s2_filename": "stim\\am_f_05.jpg",
                    "s1_category": "am",
                    "s2_category": "am",
                    "elapsed_since_previous": 10.002932900000815,
                    "timer": 233.00800159999926,
                    "tag": 239.01512720000028,
                    "block_start": 36.57362229999853,
                    "first_tag_trigger": 13.178866700000071
                },
                {
                    "trial_number": 29,
                    "global_trial_number": 29,
                    "trial_type": 3,
                    "condition": "incoherent_mock",
                    "reaction_time": 5000,
                    "button_press": 0,
                    "response_correct": false,
                    "is_target": "normal",
                    "target_accuracy": "correct",
                    "trial_trigger_time": 260.18397019999975,
                    "s1_onset": 260.46383030000106,
                    "s2_onset": 264.74547879999955,
                    "trial_trigger_time_cor": 247.00510349999968,
                    "s1_onset_cor": 247.284963600001,
                    "s2_onset_cor": 251.56661209999947,
                    "isi": 4,
                    "iti": 0.05,
                    "s1_filename": "stim\\hp_c_05.jpg",
                    "s2_filename": "stim\\mock4_f_05.jpg",
                    "s1_category": "hp",
                    "s2_category": "mock4",
                    "elapsed_since_previous": 7.989976299999398,
                    "timer": 240.99797789999866,
                    "tag": 247.00510349999968,
                    "block_start": 36.57362229999853,
                    "first_tag_trigger": 13.178866700000071
                },
                {
                    "trial_number": 30,
                    "global_trial_number": 30,
                    "trial_type": 1,
                    "condition": "coherent",
                    "reaction_time": 5000,
                    "button_press": 0,
                    "response_correct": false,
                    "is_target": "normal",
                    "target_accuracy": "correct",
                    "trial_trigger_time": 267.1969041000011,
                    "s1_onset": 267.5276238000006,
                    "s2_onset": 271.80923520000033,
                    "trial_trigger_time_cor": 254.01803740000105,
                    "s1_onset_cor": 254.3487571000005,
                    "s2_onset_cor": 258.63036850000026,
                    "isi": 4,
                    "iti": 0.05,
                    "s1_filename": "stim\\poc_c_05.jpg",
                    "s2_filename": "stim\\poc_f_04.jpg",
                    "s1_category": "poc",
                    "s2_category": "poc",
                    "elapsed_since_previous": 7.0129339000013715,
                    "timer": 248.01091180000003,
                    "tag": 254.01803740000105,
                    "block_start": 36.57362229999853,
                    "first_tag_trigger": 13.178866700000071
                }
            ]
        },
        {
            "block_number": 2,
            "block_type": "Alternation Block",
            "trials": [
                {
                    "trial_number": 1,
                    "global_trial_number": 31,
                    "trial_type": 2,
                    "condition": "incoherent_real",
                    "reaction_time": 5000,
                    "button_press": 0,
                    "response_correct": false,
                    "is_target": "normal",
                    "target_accuracy": "correct",
                    "trial_trigger_time": 286.18290479999996,
                    "s1_onset": 286.46988630000124,
                    "s2_onset": 291.50144960000034,
                    "trial_trigger_time_cor": 273.0040380999999,
                    "s1_onset_cor": 273.29101960000116,
                    "s2_onset_cor": 278.32258290000027,
                    "isi": 4.75,
                    "iti": 0.05,
                    "s1_filename": "stim\\im_c_04.jpg",
                    "s2_filename": "stim\\mock2_f_02.jpg",
                    "s1_category": "im",
                    "s2_category": "mock2",
                    "elapsed_since_previous": 18.98600069999884,
                    "timer": 266.99691249999887,
                    "tag": 273.0040380999999,
                    "block_start": 36.57362229999853,
                    "first_tag_trigger": 13.178866700000071
                },
                {
                    "trial_number": 2,
                    "global_trial_number": 32,
                    "trial_type": 4,
                    "condition": "neutral",
                    "reaction_time": 5000,
                    "button_press": 0,
                    "response_correct": false,
                    "is_target": "normal",
                    "target_accuracy": "correct",
                    "trial_trigger_time": 296.1829852999999,
                    "s1_onset": 296.3998216,
                    "s2_onset": 301.1808216999998,
                    "trial_trigger_time_cor": 283.00411859999986,
                    "s1_onset_cor": 283.2209548999999,
                    "s2_onset_cor": 288.0019549999997,
                    "isi": 4.5,
                    "iti": 0.05,
                    "s1_filename": "stim\\mock1_c_05.jpg",
                    "s2_filename": "stim\\mock4_f_01.jpg",
                    "s1_category": "mock1",
                    "s2_category": "mock4",
                    "elapsed_since_previous": 10.000080499999967,
                    "timer": 276.99699299999884,
                    "tag": 283.00411859999986,
                    "block_start": 36.57362229999853,
                    "first_tag_trigger": 13.178866700000071
                },
                {
                    "trial_number": 3,
                    "global_trial_number": 33,
                    "trial_type": 2,
                    "condition": "incoherent_real",
                    "reaction_time": 5000,
                    "button_press": 0,
                    "response_correct": false,
                    "is_target": "normal",
                    "target_accuracy": "correct",
                    "trial_trigger_time": 306.18999840000106,
                    "s1_onset": 306.49513930000103,
                    "s2_onset": 311.27660900000046,
                    "trial_trigger_time_cor": 293.011131700001,
                    "s1_onset_cor": 293.31627260000096,
                    "s2_onset_cor": 298.0977423000004,
                    "isi": 4.5,
                    "iti": 0.05,
                    "s1_filename": "stim\\am_c_02.jpg",
                    "s2_filename": "stim\\im_f_01.jpg",
                    "s1_category": "am",
                    "s2_category": "im",
                    "elapsed_since_previous": 10.007013100001132,
                    "timer": 287.00400609999997,
                    "tag": 293.011131700001,
                    "block_start": 36.57362229999853,
                    "first_tag_trigger": 13.178866700000071
                },
                {
                    "trial_number": 4,
                    "global_trial_number": 34,
                    "trial_type": 2,
                    "condition": "incoherent_real",
                    "reaction_time": 5000,
                    "button_press": 0,
                    "response_correct": false,
                    "is_target": "normal",
                    "target_accuracy": "correct",
                    "trial_trigger_time": 315.18889260000105,
                    "s1_onset": 315.4914389000005,
                    "s2_onset": 319.7566127000009,
                    "trial_trigger_time_cor": 302.010025900001,
                    "s1_onset_cor": 302.31257220000043,
                    "s2_onset_cor": 306.57774600000084,
                    "isi": 4,
                    "iti": 0.05,
                    "s1_filename": "stim\\poc_c_03.jpg",
                    "s2_filename": "stim\\mock3_f_05.jpg",
                    "s1_category": "poc",
                    "s2_category": "mock3",
                    "elapsed_since_previous": 8.998894199999995,
                    "timer": 296.00290029999996,
                    "tag": 302.010025900001,
                    "block_start": 36.57362229999853,
                    "first_tag_trigger": 13.178866700000071
                },
                {
                    "trial_number": 5,
                    "global_trial_number": 35,
                    "trial_type": 2,
                    "condition": "incoherent_real",
                    "reaction_time": 5000,
                    "button_press": 0,
                    "response_correct": false,
                    "is_target": "normal",
                    "target_accuracy": "correct",
                    "trial_trigger_time": 324.1829725000007,
                    "s1_onset": 324.47115920000033,
                    "s2_onset": 329.7526206000002,
                    "trial_trigger_time_cor": 311.0041058000006,
                    "s1_onset_cor": 311.29229250000026,
                    "s2_onset_cor": 316.57375390000016,
                    "isi": 5,
                    "iti": 0.05,
                    "s1_filename": "stim\\hp_c_04.jpg",
                    "s2_filename": "stim\\mock2_f_03.jpg",
                    "s1_category": "hp",
                    "s2_category": "mock2",
                    "elapsed_since_previous": 8.994079899999633,
                    "timer": 304.9969801999996,
                    "tag": 311.0041058000006,
                    "block_start": 36.57362229999853,
                    "first_tag_trigger": 13.178866700000071
                },
                {
                    "trial_number": 6,
                    "global_trial_number": 36,
                    "trial_type": 1,
                    "condition": "coherent",
                    "reaction_time": 5000,
                    "button_press": 0,
                    "response_correct": false,
                    "is_target": "normal",
                    "target_accuracy": "correct",
                    "trial_trigger_time": 333.18900159999976,
                    "s1_onset": 333.4010362000008,
                    "s2_onset": 338.1825181000004,
                    "trial_trigger_time_cor": 320.0101348999997,
                    "s1_onset_cor": 320.22216950000075,
                    "s2_onset_cor": 325.0036514000003,
                    "isi": 4.5,
                    "iti": 0.05,
                    "s1_filename": "stim\\im_c_05.jpg",
                    "s2_filename": "stim\\im_f_03.jpg",
                    "s1_category": "im",
                    "s2_category": "im",
                    "elapsed_since_previous": 9.006029099999068,
                    "timer": 314.00300929999867,
                    "tag": 320.0101348999997,
                    "block_start": 36.57362229999853,
                    "first_tag_trigger": 13.178866700000071
                },
                {
                    "trial_number": 7,
                    "global_trial_number": 37,
                    "trial_type": 3,
                    "condition": "incoherent_mock",
                    "reaction_time": 5000,
                    "button_press": 0,
                    "response_correct": false,
                    "is_target": "normal",
                    "target_accuracy": "correct",
                    "trial_trigger_time": 341.1889719999999,
                    "s1_onset": 341.43103320000046,
                    "s2_onset": 345.96251649999977,
                    "trial_trigger_time_cor": 328.01010529999985,
                    "s1_onset_cor": 328.2521665000004,
                    "s2_onset_cor": 332.7836497999997,
                    "isi": 4.25,
                    "iti": 0.05,
                    "s1_filename": "stim\\hp_c_02.jpg",
                    "s2_filename": "stim\\mock2_f_05.jpg",
                    "s1_category": "hp",
                    "s2_category": "mock2",
                    "elapsed_since_previous": 7.999970400000166,
                    "timer": 322.00297969999883,
                    "tag": 328.01010529999985,
                    "block_start": 36.57362229999853,
                    "first_tag_trigger": 13.178866700000071
                },
                {
                    "trial_number": 8,
                    "global_trial_number": 38,
                    "trial_type": 1,
                    "condition": "coherent",
                    "reaction_time": 5000,
                    "button_press": 0,
                    "response_correct": false,
                    "is_target": "normal",
                    "target_accuracy": "correct",
                    "trial_trigger_time": 348.18490999999995,
                    "s1_onset": 348.39493670000047,
                    "s2_onset": 352.92653319999954,
                    "trial_trigger_time_cor": 335.0060432999999,
                    "s1_onset_cor": 335.2160700000004,
                    "s2_onset_cor": 339.74766649999947,
                    "isi": 4.25,
                    "iti": 0.05,
                    "s1_filename": "stim\\im_c_03.jpg",
                    "s2_filename": "stim\\im_f_04.jpg",
                    "s1_category": "im",
                    "s2_category": "im",
                    "elapsed_since_previous": 6.995938000000024,
                    "timer": 328.99891769999886,
                    "tag": 335.0060432999999,
                    "block_start": 36.57362229999853,
                    "first_tag_trigger": 13.178866700000071
                },
                {
                    "trial_number": 9,
                    "global_trial_number": 39,
                    "trial_type": 4,
                    "condition": "neutral",
                    "reaction_time": 5000,
                    "button_press": 0,
                    "response_correct": false,
                    "is_target": "normal",
                    "target_accuracy": "correct",
                    "trial_trigger_time": 357.1919214999998,
                    "s1_onset": 357.4745318000005,
                    "s2_onset": 362.48938500000077,
                    "trial_trigger_time_cor": 344.01305479999974,
                    "s1_onset_cor": 344.2956651000004,
                    "s2_onset_cor": 349.3105183000007,
                    "isi": 4.75,
                    "iti": 0.05,
                    "s1_filename": "stim\\mock3_c_02.jpg",
                    "s2_filename": "stim\\mock2_f_02.jpg",
                    "s1_category": "mock3",
                    "s2_category": "mock2",
                    "elapsed_since_previous": 9.007011499999862,
                    "timer": 338.0059291999987,
                    "tag": 344.01305479999974,
                    "block_start": 36.57362229999853,
                    "first_tag_trigger": 13.178866700000071
                },
                {
                    "trial_number": 10,
                    "global_trial_number": 40,
                    "trial_type": 1,
                    "condition": "coherent",
                    "reaction_time": 5000,
                    "button_press": 0,
                    "response_correct": false,
                    "is_target": "normal",
                    "target_accuracy": "correct",
                    "trial_trigger_time": 366.1839794999996,
                    "s1_onset": 366.38771590000033,
                    "s2_onset": 371.6688730999995,
                    "trial_trigger_time_cor": 353.00511279999955,
                    "s1_onset_cor": 353.20884920000026,
                    "s2_onset_cor": 358.4900063999994,
                    "isi": 5,
                    "iti": 0.05,
                    "s1_filename": "stim\\am_c_04.jpg",
                    "s2_filename": "stim\\am_f_05.jpg",
                    "s1_category": "am",
                    "s2_category": "am",
                    "elapsed_since_previous": 8.992057999999815,
                    "timer": 346.99798719999853,
                    "tag": 353.00511279999955,
                    "block_start": 36.57362229999853,
                    "first_tag_trigger": 13.178866700000071
                },
                {
                    "trial_number": 11,
                    "global_trial_number": 41,
                    "trial_type": 1,
                    "condition": "coherent",
                    "reaction_time": 5000,
                    "button_press": 0,
                    "response_correct": false,
                    "is_target": "normal",
                    "target_accuracy": "correct",
                    "trial_trigger_time": 374.18999910000093,
                    "s1_onset": 374.40102560000014,
                    "s2_onset": 379.66584859999966,
                    "trial_trigger_time_cor": 361.01113240000086,
                    "s1_onset_cor": 361.22215890000007,
                    "s2_onset_cor": 366.4869818999996,
                    "isi": 5,
                    "iti": 0.05,
                    "s1_filename": "stim\\hp_c_01.jpg",
                    "s2_filename": "stim\\hp_f_02.jpg",
                    "s1_category": "hp",
                    "s2_category": "hp",
                    "elapsed_since_previous": 8.00601960000131,
                    "timer": 355.00400679999984,
                    "tag": 361.01113240000086,
                    "block_start": 36.57362229999853,
                    "first_tag_trigger": 13.178866700000071
                },
                {
                    "trial_number": 12,
                    "global_trial_number": 42,
                    "trial_type": 4,
                    "condition": "neutral",
                    "reaction_time": 5000,
                    "button_press": 0,
                    "response_correct": false,
                    "is_target": "normal",
                    "target_accuracy": "correct",
                    "trial_trigger_time": 383.1880093,
                    "s1_onset": 383.4475168000008,
                    "s2_onset": 387.97910729999967,
                    "trial_trigger_time_cor": 370.0091425999999,
                    "s1_onset_cor": 370.26865010000074,
                    "s2_onset_cor": 374.8002405999996,
                    "isi": 4.25,
                    "iti": 0.05,
                    "s1_filename": "stim\\mock2_c_02.jpg",
                    "s2_filename": "stim\\mock3_f_04.jpg",
                    "s1_category": "mock2",
                    "s2_category": "mock3",
                    "elapsed_since_previous": 8.998010199999044,
                    "timer": 364.0020169999989,
                    "tag": 370.0091425999999,
                    "block_start": 36.57362229999853,
                    "first_tag_trigger": 13.178866700000071
                },
                {
                    "trial_number": 13,
                    "global_trial_number": 43,
                    "trial_type": 1,
                    "condition": "coherent",
                    "reaction_time": 5000,
                    "button_press": 0,
                    "response_correct": false,
                    "is_target": "normal",
                    "target_accuracy": "correct",
                    "trial_trigger_time": 390.18697109999994,
                    "s1_onset": 390.5446090000005,
                    "s2_onset": 394.8262474000003,
                    "trial_trigger_time_cor": 377.00810439999987,
                    "s1_onset_cor": 377.3657423000004,
                    "s2_onset_cor": 381.6473807000002,
                    "isi": 4,
                    "iti": 0.05,
                    "s1_filename": "stim\\poc_c_02.jpg",
                    "s2_filename": "stim\\poc_f_01.jpg",
                    "s1_category": "poc",
                    "s2_category": "poc",
                    "elapsed_since_previous": 6.998961799999961,
                    "timer": 371.00097879999885,
                    "tag": 377.00810439999987,
                    "block_start": 36.57362229999853,
                    "first_tag_trigger": 13.178866700000071
                },
                {
                    "trial_number": 14,
                    "global_trial_number": 44,
                    "trial_type": 4,
                    "condition": "neutral",
                    "reaction_time": 5000,
                    "button_press": 0,
                    "response_correct": false,
                    "is_target": "normal",
                    "target_accuracy": "correct",
                    "trial_trigger_time": 399.1938905999996,
                    "s1_onset": 399.5078439000008,
                    "s2_onset": 403.7893185000012,
                    "trial_trigger_time_cor": 386.0150238999995,
                    "s1_onset_cor": 386.32897720000074,
                    "s2_onset_cor": 390.6104518000011,
                    "isi": 4,
                    "iti": 0.05,
                    "s1_filename": "stim\\mock1_c_01.jpg",
                    "s2_filename": "stim\\mock4_f_04.jpg",
                    "s1_category": "mock1",
                    "s2_category": "mock4",
                    "elapsed_since_previous": 9.00691949999964,
                    "timer": 380.0078982999985,
                    "tag": 386.0150238999995,
                    "block_start": 36.57362229999853,
                    "first_tag_trigger": 13.178866700000071
                },
                {
                    "trial_number": 15,
                    "global_trial_number": 45,
                    "trial_type": 3,
                    "condition": "incoherent_mock",
                    "reaction_time": 5000,
                    "button_press": 0,
                    "response_correct": false,
                    "is_target": "normal",
                    "target_accuracy": "correct",
                    "trial_trigger_time": 406.1909321000003,
                    "s1_onset": 406.4381751000001,
                    "s2_onset": 410.7199719,
                    "trial_trigger_time_cor": 393.0120654000002,
                    "s1_onset_cor": 393.2593084,
                    "s2_onset_cor": 397.54110519999995,
                    "isi": 4,
                    "iti": 0.05,
                    "s1_filename": "stim\\am_c_05.jpg",
                    "s2_filename": "stim\\mock3_f_03.jpg",
                    "s1_category": "am",
                    "s2_category": "mock3",
                    "elapsed_since_previous": 6.997041500000705,
                    "timer": 387.0049397999992,
                    "tag": 393.0120654000002,
                    "block_start": 36.57362229999853,
                    "first_tag_trigger": 13.178866700000071
                },
                {
                    "trial_number": 16,
                    "global_trial_number": 46,
                    "trial_type": 2,
                    "condition": "incoherent_real",
                    "reaction_time": 5000,
                    "button_press": 0,
                    "response_correct": false,
                    "is_target": "normal",
                    "target_accuracy": "correct",
                    "trial_trigger_time": 415.1928454000008,
                    "s1_onset": 415.4681679000005,
                    "s2_onset": 420.4826739,
                    "trial_trigger_time_cor": 402.01397870000073,
                    "s1_onset_cor": 402.2893012000004,
                    "s2_onset_cor": 407.30380719999994,
                    "isi": 4.75,
                    "iti": 0.05,
                    "s1_filename": "stim\\im_c_02.jpg",
                    "s2_filename": "stim\\mock2_f_04.jpg",
                    "s1_category": "im",
                    "s2_category": "mock2",
                    "elapsed_since_previous": 9.001913300000524,
                    "timer": 396.0068530999997,
                    "tag": 402.01397870000073,
                    "block_start": 36.57362229999853,
                    "first_tag_trigger": 13.178866700000071
                },
                {
                    "trial_number": 17,
                    "global_trial_number": 47,
                    "trial_type": 4,
                    "condition": "neutral",
                    "reaction_time": 5000,
                    "button_press": 0,
                    "response_correct": false,
                    "is_target": "normal",
                    "target_accuracy": "correct",
                    "trial_trigger_time": 425.1869690000003,
                    "s1_onset": 425.3972840999995,
                    "s2_onset": 430.1621888000009,
                    "trial_trigger_time_cor": 412.00810230000025,
                    "s1_onset_cor": 412.21841739999945,
                    "s2_onset_cor": 416.9833221000008,
                    "isi": 4.5,
                    "iti": 0.05,
                    "s1_filename": "stim\\mock3_c_03.jpg",
                    "s2_filename": "stim\\mock3_f_05.jpg",
                    "s1_category": "mock3",
                    "s2_category": "mock3",
                    "elapsed_since_previous": 9.994123599999511,
                    "timer": 406.0009766999992,
                    "tag": 412.00810230000025,
                    "block_start": 36.57362229999853,
                    "first_tag_trigger": 13.178866700000071
                },
                {
                    "trial_number": 18,
                    "global_trial_number": 48,
                    "trial_type": 3,
                    "condition": "incoherent_mock",
                    "reaction_time": 5000,
                    "button_press": 0,
                    "response_correct": false,
                    "is_target": "normal",
                    "target_accuracy": "correct",
                    "trial_trigger_time": 432.18999729999996,
                    "s1_onset": 432.42785750000075,
                    "s2_onset": 436.70945969999957,
                    "trial_trigger_time_cor": 419.0111305999999,
                    "s1_onset_cor": 419.2489908000007,
                    "s2_onset_cor": 423.5305929999995,
                    "isi": 4,
                    "iti": 0.05,
                    "s1_filename": "stim\\poc_c_04.jpg",
                    "s2_filename": "stim\\mock2_f_04.jpg",
                    "s1_category": "poc",
                    "s2_category": "mock2",
                    "elapsed_since_previous": 7.003028299999642,
                    "timer": 413.00400499999887,
                    "tag": 419.0111305999999,
                    "block_start": 36.57362229999853,
                    "first_tag_trigger": 13.178866700000071
                },
                {
                    "trial_number": 19,
                    "global_trial_number": 49,
                    "trial_type": 1,
                    "condition": "target",
                    "reaction_time": 5000,
                    "button_press": 0,
                    "response_correct": false,
                    "is_target": "target",
                    "target_accuracy": "missed",
                    "trial_trigger_time": 439.1919816000009,
                    "s1_onset": 439.458515100001,
                    "s2_onset": 443.73984569999993,
                    "trial_trigger_time_cor": 426.0131149000008,
                    "s1_onset_cor": 426.27964840000095,
                    "s2_onset_cor": 430.56097899999986,
                    "isi": 4,
                    "iti": 0.05,
                    "s1_filename": "stim\\hp_c_03.jpg",
                    "s2_filename": "stim\\hp_f_05.jpg",
                    "s1_category": "hp",
                    "s2_category": "hp",
                    "elapsed_since_previous": 7.001984300000913,
                    "timer": 420.0059892999998,
                    "tag": 426.0131149000008,
                    "block_start": 36.57362229999853,
                    "first_tag_trigger": 13.178866700000071
                },
                {
                    "trial_number": 20,
                    "global_trial_number": 50,
                    "trial_type": 3,
                    "condition": "target",
                    "reaction_time": 5000,
                    "button_press": 0,
                    "response_correct": false,
                    "is_target": "target",
                    "target_accuracy": "missed",
                    "trial_trigger_time": 448.18899749999946,
                    "s1_onset": 448.4713087,
                    "s2_onset": 453.50280329999987,
                    "trial_trigger_time_cor": 435.0101307999994,
                    "s1_onset_cor": 435.29244199999994,
                    "s2_onset_cor": 440.3239365999998,
                    "isi": 4.75,
                    "iti": 0.05,
                    "s1_filename": "stim\\am_c_03.jpg",
                    "s2_filename": "stim\\mock2_f_03.jpg",
                    "s1_category": "am",
                    "s2_category": "mock2",
                    "elapsed_since_previous": 8.997015899998587,
                    "timer": 429.00300519999837,
                    "tag": 435.0101307999994,
                    "block_start": 36.57362229999853,
                    "first_tag_trigger": 13.178866700000071
                },
                {
                    "trial_number": 21,
                    "global_trial_number": 51,
                    "trial_type": 1,
                    "condition": "target",
                    "reaction_time": 5000,
                    "button_press": 0,
                    "response_correct": false,
                    "is_target": "target",
                    "target_accuracy": "missed",
                    "trial_trigger_time": 458.1909312000007,
                    "s1_onset": 458.4507042000005,
                    "s2_onset": 463.4820442,
                    "trial_trigger_time_cor": 445.01206450000063,
                    "s1_onset_cor": 445.2718375000004,
                    "s2_onset_cor": 450.30317749999995,
                    "isi": 4.75,
                    "iti": 0.05,
                    "s1_filename": "stim\\im_c_01.jpg",
                    "s2_filename": "stim\\im_f_05.jpg",
                    "s1_category": "im",
                    "s2_category": "im",
                    "elapsed_since_previous": 10.001933700001246,
                    "timer": 439.0049388999996,
                    "tag": 445.01206450000063,
                    "block_start": 36.57362229999853,
                    "first_tag_trigger": 13.178866700000071
                },
                {
                    "trial_number": 22,
                    "global_trial_number": 52,
                    "trial_type": 2,
                    "condition": "incoherent_real",
                    "reaction_time": 5000,
                    "button_press": 0,
                    "response_correct": false,
                    "is_target": "normal",
                    "target_accuracy": "correct",
                    "trial_trigger_time": 467.19097839999995,
                    "s1_onset": 467.39710150000064,
                    "s2_onset": 472.1786131000008,
                    "trial_trigger_time_cor": 454.0121116999999,
                    "s1_onset_cor": 454.2182348000006,
                    "s2_onset_cor": 458.99974640000073,
                    "isi": 4.5,
                    "iti": 0.05,
                    "s1_filename": "stim\\hp_c_05.jpg",
                    "s2_filename": "stim\\mock1_f_02.jpg",
                    "s1_category": "hp",
                    "s2_category": "mock1",
                    "elapsed_since_previous": 9.000047199999244,
                    "timer": 448.00498609999886,
                    "tag": 454.0121116999999,
                    "block_start": 36.57362229999853,
                    "first_tag_trigger": 13.178866700000071
                },
                {
                    "trial_number": 23,
                    "global_trial_number": 53,
                    "trial_type": 4,
                    "condition": "neutral",
                    "reaction_time": 5000,
                    "button_press": 0,
                    "response_correct": false,
                    "is_target": "normal",
                    "target_accuracy": "correct",
                    "trial_trigger_time": 477.1880503000011,
                    "s1_onset": 477.44306660000075,
                    "s2_onset": 482.45787999999993,
                    "trial_trigger_time_cor": 464.00918360000105,
                    "s1_onset_cor": 464.2641999000007,
                    "s2_onset_cor": 469.27901329999986,
                    "isi": 4.75,
                    "iti": 0.05,
                    "s1_filename": "stim\\mock1_c_02.jpg",
                    "s2_filename": "stim\\mock1_f_02.jpg",
                    "s1_category": "mock1",
                    "s2_category": "mock1",
                    "elapsed_since_previous": 9.997071900001174,
                    "timer": 458.00205800000003,
                    "tag": 464.00918360000105,
                    "block_start": 36.57362229999853,
                    "first_tag_trigger": 13.178866700000071
                },
                {
                    "trial_number": 24,
                    "global_trial_number": 54,
                    "trial_type": 3,
                    "condition": "incoherent_mock",
                    "reaction_time": 5000,
                    "button_press": 0,
                    "response_correct": false,
                    "is_target": "normal",
                    "target_accuracy": "correct",
                    "trial_trigger_time": 486.19105820000004,
                    "s1_onset": 486.5059841000002,
                    "s2_onset": 490.78789490000054,
                    "trial_trigger_time_cor": 473.0121915,
                    "s1_onset_cor": 473.32711740000013,
                    "s2_onset_cor": 477.60902820000047,
                    "isi": 4,
                    "iti": 0.05,
                    "s1_filename": "stim\\am_c_04.jpg",
                    "s2_filename": "stim\\mock2_f_01.jpg",
                    "s1_category": "am",
                    "s2_category": "mock2",
                    "elapsed_since_previous": 9.00300789999892,
                    "timer": 467.00506589999895,
                    "tag": 473.0121915,
                    "block_start": 36.57362229999853,
                    "first_tag_trigger": 13.178866700000071
                },
                {
                    "trial_number": 25,
                    "global_trial_number": 55,
                    "trial_type": 3,
                    "condition": "incoherent_mock",
                    "reaction_time": 5000,
                    "button_press": 0,
                    "response_correct": false,
                    "is_target": "normal",
                    "target_accuracy": "correct",
                    "trial_trigger_time": 494.1849050000001,
                    "s1_onset": 494.40282900000057,
                    "s2_onset": 498.934760600001,
                    "trial_trigger_time_cor": 481.0060383,
                    "s1_onset_cor": 481.2239623000005,
                    "s2_onset_cor": 485.75589390000096,
                    "isi": 4.25,
                    "iti": 0.05,
                    "s1_filename": "stim\\poc_c_05.jpg",
                    "s2_filename": "stim\\mock2_f_05.jpg",
                    "s1_category": "poc",
                    "s2_category": "mock2",
                    "elapsed_since_previous": 7.9938468000000285,
                    "timer": 474.998912699999,
                    "tag": 481.0060383,
                    "block_start": 36.57362229999853,
                    "first_tag_trigger": 13.178866700000071
                },
                {
                    "trial_number": 26,
                    "global_trial_number": 56,
                    "trial_type": 4,
                    "condition": "neutral",
                    "reaction_time": 5000,
                    "button_press": 0,
                    "response_correct": false,
                    "is_target": "normal",
                    "target_accuracy": "correct",
                    "trial_trigger_time": 502.19090789999973,
                    "s1_onset": 502.4664114999996,
                    "s2_onset": 507.49784850000106,
                    "trial_trigger_time_cor": 489.01204119999966,
                    "s1_onset_cor": 489.2875447999995,
                    "s2_onset_cor": 494.318981800001,
                    "isi": 4.75,
                    "iti": 0.05,
                    "s1_filename": "stim\\mock2_c_05.jpg",
                    "s2_filename": "stim\\mock4_f_01.jpg",
                    "s1_category": "mock2",
                    "s2_category": "mock4",
                    "elapsed_since_previous": 8.006002899999658,
                    "timer": 483.00491559999864,
                    "tag": 489.01204119999966,
                    "block_start": 36.57362229999853,
                    "first_tag_trigger": 13.178866700000071
                },
                {
                    "trial_number": 27,
                    "global_trial_number": 57,
                    "trial_type": 1,
                    "condition": "coherent",
                    "reaction_time": 5000,
                    "button_press": 0,
                    "response_correct": false,
                    "is_target": "normal",
                    "target_accuracy": "correct",
                    "trial_trigger_time": 512.1900612999998,
                    "s1_onset": 512.4290491000011,
                    "s2_onset": 516.7108859,
                    "trial_trigger_time_cor": 499.0111945999997,
                    "s1_onset_cor": 499.250182400001,
                    "s2_onset_cor": 503.5320191999999,
                    "isi": 4,
                    "iti": 0.05,
                    "s1_filename": "stim\\am_c_05.jpg",
                    "s2_filename": "stim\\am_f_02.jpg",
                    "s1_category": "am",
                    "s2_category": "am",
                    "elapsed_since_previous": 9.999153400000068,
                    "timer": 493.0040689999987,
                    "tag": 499.0111945999997,
                    "block_start": 36.57362229999853,
                    "first_tag_trigger": 13.178866700000071
                },
                {
                    "trial_number": 28,
                    "global_trial_number": 58,
                    "trial_type": 4,
                    "condition": "neutral",
                    "reaction_time": 5000,
                    "button_press": 0,
                    "response_correct": false,
                    "is_target": "normal",
                    "target_accuracy": "correct",
                    "trial_trigger_time": 521.1859762000004,
                    "s1_onset": 521.3921295,
                    "s2_onset": 526.4235712999998,
                    "trial_trigger_time_cor": 508.0071095000003,
                    "s1_onset_cor": 508.21326279999994,
                    "s2_onset_cor": 513.2447045999997,
                    "isi": 4.75,
                    "iti": 0.05,
                    "s1_filename": "stim\\mock4_c_05.jpg",
                    "s2_filename": "stim\\mock3_f_02.jpg",
                    "s1_category": "mock4",
                    "s2_category": "mock3",
                    "elapsed_since_previous": 8.995914900000571,
                    "timer": 501.9999838999993,
                    "tag": 508.0071095000003,
                    "block_start": 36.57362229999853,
                    "first_tag_trigger": 13.178866700000071
                },
                {
                    "trial_number": 29,
                    "global_trial_number": 59,
                    "trial_type": 2,
                    "condition": "incoherent_real",
                    "reaction_time": 5000,
                    "button_press": 0,
                    "response_correct": false,
                    "is_target": "normal",
                    "target_accuracy": "correct",
                    "trial_trigger_time": 530.1869709000002,
                    "s1_onset": 530.3884699999999,
                    "s2_onset": 535.1700541000009,
                    "trial_trigger_time_cor": 517.0081042000002,
                    "s1_onset_cor": 517.2096032999998,
                    "s2_onset_cor": 521.9911874000009,
                    "isi": 4.5,
                    "iti": 0.05,
                    "s1_filename": "stim\\poc_c_04.jpg",
                    "s2_filename": "stim\\mock1_f_03.jpg",
                    "s1_category": "poc",
                    "s2_category": "mock1",
                    "elapsed_since_previous": 9.000994699999865,
                    "timer": 511.00097859999914,
                    "tag": 517.0081042000002,
                    "block_start": 36.57362229999853,
                    "first_tag_trigger": 13.178866700000071
                },
                {
                    "trial_number": 30,
                    "global_trial_number": 60,
                    "trial_type": 1,
                    "condition": "coherent",
                    "reaction_time": 5000,
                    "button_press": 0,
                    "response_correct": false,
                    "is_target": "normal",
                    "target_accuracy": "correct",
                    "trial_trigger_time": 538.1860052000011,
                    "s1_onset": 538.4353525999995,
                    "s2_onset": 543.2001273999995,
                    "trial_trigger_time_cor": 525.007138500001,
                    "s1_onset_cor": 525.2564858999995,
                    "s2_onset_cor": 530.0212606999994,
                    "isi": 4.5,
                    "iti": 0.05,
                    "s1_filename": "stim\\im_c_01.jpg",
                    "s2_filename": "stim\\im_f_01.jpg",
                    "s1_category": "im",
                    "s2_category": "im",
                    "elapsed_since_previous": 7.999034300000858,
                    "timer": 519.0000129,
                    "tag": 525.007138500001,
                    "block_start": 36.57362229999853,
                    "first_tag_trigger": 13.178866700000071
                }
            ]
        }
    ]
}